time,seconds_elapsed,z,y,x
1772514963844924700,-0.000075439453125,0.022968292236328125,-0.02521979808807373,0.06732571125030518
1772514963854971400,0.009971435546875,0.03674793243408203,-0.010751470923423767,0.04208177328109741
1772514963865019100,0.02001904296875,0.0031652450561523438,-0.010656818747520447,-0.047958970069885254
1772514963875065900,0.03006591796875,0.007860183715820312,0.008364647626876831,0.0699722170829773
1772514963885113000,0.040113037109375,-0.0017061233520507812,-0.005676344037055969,0.003212869167327881
1772514963895160000,0.05016015625,-0.0016851425170898438,0.01799076795578003,-0.0014214515686035156
1772514963905207600,0.06020751953125,0.0030717849731445312,-0.0009997934103012085,0.045417189598083496
1772514963915254500,0.070254638671875,0.017145156860351562,0.013178884983062744,-0.016522347927093506
1772514963925302500,0.080302490234375,0.0027341842651367188,-0.0010363012552261353,0.021448910236358643
1772514963935349800,0.090349853515625,-0.0020074844360351562,-0.02453918755054474,0.04445815086364746
1772514963945391000,0.10039111328125,0.0027313232421875,-0.019492745399475098,-0.008050203323364258
1772514963955437600,0.1104375,-0.006717681884765625,-0.0049119144678115845,0.001326918601989746
1772514963965488400,0.12048828125,-0.020719528198242188,0.018742427229881287,0.0105476975440979
1772514964035788000,0.1907880859375,-0.000019073486328125,0.009556680917739868,-0.0033167004585266113
1772514964055877400,0.21087744140625,0.008730888366699219,-0.00938175618648529,-0.016003191471099854
1772514964075971000,0.23097119140625,0.00113677978515625,-0.0012411326169967651,0.0014715790748596191
1772514964086018300,0.241018310546875,0.005237579345703125,-0.0054966360330581665,-0.015323162078857422
1772514964096052700,0.251052734375,-0.008234977722167969,0.012324243783950806,-0.004868984222412109
1772514964106082300,0.261082275390625,-0.0031681060791015625,0.015503644943237305,0.013479411602020264
1772514964126176000,0.281176025390625,-0.012350082397460938,0.0038248300552368164,-0.017836570739746094
1772514964136263700,0.291263671875,-0.024860382080078125,-0.01863303780555725,-0.011320948600769043
1772514964146313700,0.301313720703125,-0.018772125244140625,-0.012778863310813904,0.0079154372215271
1772514964156352500,0.3113525390625,-0.008647918701171875,0.010506317019462585,0.02130126953125
1772514964166401500,0.321401611328125,-0.012689590454101562,-0.008283734321594238,-0.024409115314483643
1772514964176450000,0.331449951171875,0.04677009582519531,0.04639609158039093,0.00007408857345581055
1772514964186498800,0.341498779296875,-0.08274650573730469,0.01213081181049347,-0.04024612903594971
1772514964196543500,0.35154345703125,0.06241798400878906,-0.0200892835855484,0.04357868432998657
1772514964206592000,0.361592041015625,0.0046634674072265625,0.0217573344707489,-0.03977310657501221
1772514964216637200,0.37163720703125,-0.03212451934814453,-0.04785539209842682,0.00786811113357544
1772514964226685200,0.381685302734375,-0.021585464477539062,-0.013873904943466187,0.053552210330963135
1772514964236730400,0.39173046875,0.015997886657714844,0.014272674918174744,-0.026269614696502686
1772514964246778000,0.401778076171875,-0.021427154541015625,-0.004748642444610596,0.0024889707565307617
1772514964256826600,0.41182666015625,0.016201019287109375,0.004579395055770874,-0.015601575374603271
1772514964266874400,0.421874267578125,0.006361961364746094,0.0043466538190841675,0.03131234645843506
1772514964276951300,0.431951416015625,-0.01696491241455078,-0.009526193141937256,0.025803208351135254
1772514964287002000,0.442002197265625,0.0020685195922851562,-0.00011996924877166748,0.007039964199066162
1772514964297022200,0.452022216796875,0.006618499755859375,0.004449591040611267,0.0023036599159240723
1772514964307070200,0.4620703125,-0.0028638839721679688,0.013616174459457397,-0.007007896900177002
1772514964317132300,0.47213232421875,-0.0027952194213867188,0.013226360082626343,0.007453978061676025
1772514964327181600,0.482181640625,0.011200904846191406,-0.01055377721786499,0.02602851390838623
1772514964337227800,0.492227783203125,0.0015592575073242188,-0.014954566955566406,0.011547625064849854
1772514964347276800,0.50227685546875,0.006155967712402344,-0.005287840962409973,0.034603774547576904
1772514964357323000,0.512322998046875,0.0059680938720703125,-0.009860098361968994,0.024559497833251953
1772514964367371500,0.52237158203125,0.001129150390625,0.013544559478759766,0.01480776071548462
1772514964377416700,0.532416748046875,0.010423660278320312,0.013223901391029358,0.0004597306251525879
1772514964387465000,0.54246484375,0.005488395690917969,0.012820884585380554,0.0004767775535583496
1772514964397510000,0.552510009765625,0.0053348541259765625,0.0030923038721084595,0.02403467893600464
1772514964407557600,0.5625576171875,0.00518798828125,-0.011061951518058777,0.009662210941314697
1772514964417603000,0.57260302734375,-0.008967399597167969,-0.006095066666603088,-0.01848745346069336
1772514964427650800,0.58265087890625,0.014616012573242188,0.012690752744674683,-0.003897547721862793
1772514964437699600,0.592699462890625,-0.0044498443603515625,0.017117828130722046,-0.0035799741744995117
1772514964447747300,0.602747314453125,0.00031566619873046875,0.012098148465156555,-0.0032692551612854004
1772514964457785300,0.612785400390625,-0.004387855529785156,0.0023023784160614014,-0.007753551006317139
1772514964467832000,0.62283203125,0.00037288665771484375,0.006775513291358948,0.006700277328491211
1772514964477887000,0.632886962890625,-0.009033203125,-0.016772806644439697,0.0022020339965820312
1772514964487934700,0.642934814453125,-0.01824665069580078,-0.007113397121429443,-0.006994724273681641
1772514964497976300,0.652976318359375,-0.00850677490234375,0.02112041413784027,0.002659618854522705
1772514964508023300,0.663023193359375,-0.008355140686035156,0.006658822298049927,0.021615207195281982
1772514964518070500,0.673070556640625,0.015263557434082031,-0.002926185727119446,0.007440805435180664
1772514964528117800,0.68311767578125,0.010260581970214844,-0.021727517247200012,0.0028322339057922363
1772514964538168600,0.69316845703125,0.0006456375122070312,-0.021490052342414856,-0.006289064884185791
1772514964548216000,0.703216064453125,-0.018181800842285156,0.007037565112113953,0.008056819438934326
1772514964558262300,0.71326220703125,0.005641937255859375,0.02105669677257538,0.012845933437347412
1772514964568309500,0.7233095703125,0.019639015197753906,-0.0029058605432510376,0.01284879446029663
1772514964578350600,0.7333505859375,-0.004250526428222656,-0.012231305241584778,0.008252143859863281
1772514964588397300,0.743397216796875,-0.004195213317871094,-0.021509677171707153,0.0036333203315734863
1772514964598451000,0.753450927734375,0.000568389892578125,-0.025823578238487244,0.013220489025115967
1772514964608498200,0.763498291015625,0.0052509307861328125,-0.020755812525749207,0.02264571189880371
1772514964618543000,0.773543212890625,0.0004520416259765625,0.007770463824272156,-0.010664761066436768
1772514964628590300,0.78359033203125,-0.01840496063232422,0.012392476201057434,0.0038712024688720703
1772514964638636800,0.79363671875,0.0148468017578125,-0.016029447317123413,0.004037022590637207
1772514964648684000,0.80368408203125,-0.008958816528320312,-0.02044142782688141,0.018323898315429688
1772514964658730000,0.81372998046875,-0.008829116821289062,-0.01055346429347992,0.004221677780151367
1772514964668777000,0.82377685546875,0.0007200241088867188,-0.0009242147207260132,0.009090244770050049
1772514964678846000,0.833845947265625,-0.004017829895019531,-0.005688756704330444,-0.004958212375640869
1772514964688895200,0.843895263671875,0.0007410049438476562,-0.0009565800428390503,-0.004647254943847656
1772514964698919000,0.8539189453125,0.010128974914550781,-0.015144169330596924,0.019198954105377197
1772514964708965400,0.86396533203125,0.009944915771484375,-0.0007432848215103149,0.014396607875823975
1772514964718995500,0.873995361328125,-0.009065628051757812,-0.010212436318397522,0.009577572345733643
1772514964729040400,0.884040283203125,-0.0042133331298828125,-0.0005753785371780396,0.009551763534545898
1772514964739109600,0.894109619140625,0.005257606506347656,-0.014749407768249512,0.01433408260345459
1772514964749156900,0.904156982421875,0.019280433654785156,0.01849949359893799,0.004910469055175781
1772514964759200800,0.91420068359375,-0.004593849182128906,-0.0007076412439346313,0.009666919708251953
1772514964769247700,0.924247802734375,0.009592056274414062,-0.005475640296936035,0.014442741870880127
1772514964779295000,0.934294921875,0.00942230224609375,-0.010157451033592224,0.01433175802230835
1772514964789342200,0.94434228515625,-0.00015926361083984375,-0.009951949119567871,0.01422262191772461
1772514964799386600,0.95438671875,-0.014299392700195312,0.01369243860244751,0.009507298469543457
1772514964809433300,0.964433349609375,-0.009377479553222656,0.0038819313049316406,0.009679853916168213
1772514964819483600,0.974483642578125,0.0001773834228515625,0.008360639214515686,0.009748995304107666
1772514964829531000,0.98453076171875,-0.009248733520507812,0.008358150720596313,0.00029903650283813477
1772514964839575000,0.994574951171875,0.000301361083984375,-0.0011621415615081787,0.010042130947113037
1772514964849621800,1.004621826171875,0.00027942657470703125,-0.015333011746406555,0.010105133056640625
1772514964859669000,1.0146689453125,-0.0044574737548828125,-0.019850507378578186,0.01026773452758789
1772514964869716000,1.024716064453125,-0.004406929016113281,-0.005458325147628784,0.0057190656661987305
1772514964879761700,1.03476171875,-0.004359245300292969,0.003884747624397278,-0.0034624338150024414
1772514964889808400,1.044808349609375,-0.0042877197265625,-0.010262846946716309,0.0013349652290344238
1772514964899858400,1.0548583984375,-0.018354415893554688,-0.010256946086883545,0.0014424920082092285
1772514964909905700,1.06490576171875,0.005484580993652344,0.003975331783294678,0.001548171043395996
1772514964919957500,1.07495751953125,-0.013451576232910156,-0.010281175374984741,0.0016521215438842773
1772514964930005200,1.085005126953125,-0.0038318634033203125,-0.0006496906280517578,0.006666243076324463
1772514964940036600,1.09503662109375,-0.008495330810546875,-0.005505576729774475,0.011495769023895264
1772514964950082600,1.10508251953125,-0.013077735900878906,-0.0006690025329589844,0.006825923919677734
1772514964960140800,1.115140869140625,-0.012862205505371094,-0.005437672138214111,0.011447787284851074
1772514964970188000,1.12518798828125,0.015596389770507812,0.0182388573884964,0.0019715428352355957
1772514964980227300,1.135227294921875,0.015321731567382812,-0.014995783567428589,0.006875395774841309
1772514964990273800,1.145273681640625,0.0009222030639648438,-0.005500465631484985,0.03053206205368042
1772514965000312000,1.15531201171875,-0.0038290023803710938,0.00843803584575653,0.020932674407958984
1772514965010357500,1.165357421875,-0.003780364990234375,0.013035491108894348,0.0066863298416137695
1772514965020425000,1.175425048828125,-0.00844573974609375,-0.019998013973236084,-0.0025085806846618652
1772514965030472700,1.18547265625,0.029346466064453125,0.013231009244918823,0.002472221851348877
1772514965040515300,1.195515380859375,0.0052890777587890625,0.0034148842096328735,0.007466375827789307
1772514965050562600,1.2055625,0.005179405212402344,-0.0013143867254257202,0.031215906143188477
1772514965060605400,1.21560546875,0.00036334991455078125,-0.020097360014915466,0.0027729272842407227
1772514965070652200,1.225652099609375,-0.0090789794921875,0.00832405686378479,0.01708287000656128
1772514965080702500,1.235702392578125,-0.008944511413574219,0.01282946765422821,0.01232004165649414
1772514965090749400,1.24574951171875,0.0005960464477539062,-0.001675233244895935,0.017154335975646973
1772514965100797200,1.255797119140625,-0.0041522979736328125,0.0077054500579833984,0.007882952690124512
1772514965110844400,1.265844482421875,-0.01821136474609375,-0.0066131651401519775,0.026615023612976074
1772514965120897300,1.275897216796875,-0.0037899017333984375,-0.006466701626777649,0.00746685266494751
1772514965130945000,1.285945068359375,-0.017868995666503906,-0.0017147660255432129,0.007572829723358154
1772514965140986600,1.295986572265625,-0.008172988891601562,0.012281328439712524,0.017096102237701416
1772514965151033900,1.306033935546875,0.006076812744140625,0.007202968001365662,0.0028151273727416992
1772514965161077800,1.316077880859375,0.0012598037719726562,-0.0069999247789382935,-0.0018087029457092285
1772514965171124500,1.32612451171875,0.005939483642578125,-0.006840318441390991,0.012478947639465332
1772514965181174000,1.336174072265625,0.0058345794677734375,-0.0021895617246627808,0.021715223789215088
1772514965191221000,1.346220947265625,0.010436058044433594,0.011914998292922974,-0.00676649808883667
1772514965201269200,1.356269287109375,0.0196685791015625,-0.0024670660495758057,-0.006521940231323242
1772514965211316200,1.366316162109375,0.009913444519042969,-0.011900842189788818,0.021970093250274658
1772514965221359400,1.376359375,0.00031185150146484375,0.0022582560777664185,0.0265427827835083
1772514965231406300,1.38640625,0.004996299743652344,-0.012070253491401672,0.012205064296722412
1772514965241457200,1.39645703125,0.019013404846191406,-0.012034237384796143,0.017041385173797607
1772514965251504000,1.406504150390625,-0.0001544952392578125,-0.007189497351646423,0.012279152870178223
1772514965261550600,1.416550537109375,0.009255409240722656,0.006991669535636902,0.021621406078338623
1772514965271597600,1.42659765625,-0.0003261566162109375,0.011519297957420349,0.021390795707702637
1772514965281615600,1.43661572265625,0.009088516235351562,0.006648138165473938,0.016453027725219727
1772514965291659800,1.44665966796875,-0.005199432373046875,-0.0029509812593460083,0.011597931385040283
1772514965301736000,1.45673583984375,0.008989334106445312,-0.012383610010147095,-0.0023891329765319824
1772514965311783200,1.466783203125,-0.0053081512451171875,0.0019915252923965454,-0.0020161867141723633
1772514965321830700,1.47683056640625,-0.00052642822265625,-0.016846507787704468,0.002954423427581787
1772514965331878100,1.486878173828125,0.008884429931640625,0.0022981762886047363,0.0031335949897766113
1772514965341950500,1.496950439453125,0.013421058654785156,0.0021952837705612183,0.01753908395767212
1772514965352000500,1.50700048828125,0.0037698745727539062,0.00680956244468689,-0.006164371967315674
1772514965362020000,1.51702001953125,-0.0010089874267578125,0.002023637294769287,0.008193552494049072
1772514965372066800,1.52706689453125,-0.010428428649902344,-0.012300953269004822,0.012996017932891846
1772514965382111200,1.537111328125,-0.0008544921875,0.00666731595993042,0.008299171924591064
1772514965392158000,1.547157958984375,-0.0055675506591796875,0.006384402513504028,0.01780647039413452
1772514965402206500,1.55720654296875,-0.0007915496826171875,-0.008012905716896057,-0.005702078342437744
1772514965412253200,1.567253173828125,0.003917694091796875,0.001379445195198059,0.01335906982421875
1772514965422294800,1.577294677734375,-0.010290145874023438,0.0060006678104400635,0.01807534694671631
1772514965432341000,1.587341064453125,-0.0007085800170898438,-0.012897461652755737,0.022612452507019043
1772514965442393900,1.597393798828125,0.003994941711425781,-0.012753665447235107,0.01304692029953003
1772514965452440800,1.60744091796875,0.008620262145996094,-0.007896944880485535,0.013059914112091064
1772514965462492000,1.617491943359375,0.013170242309570312,-0.0030137598514556885,0.02249199151992798
1772514965472539100,1.6275390625,0.008227348327636719,-0.0029272735118865967,-0.005903959274291992
1772514965482582000,1.63758203125,-0.006058692932128906,-0.012360051274299622,-0.010183095932006836
1772514965492628700,1.647628662109375,-0.0012655258178710938,-0.0075165629386901855,0.01375800371170044
1772514965502678300,1.65767822265625,0.0034542083740234375,0.006670057773590088,0.018367111682891846
1772514965512725500,1.6677255859375,-0.010746002197265625,0.0017858892679214478,0.008874297142028809
1772514965522771500,1.677771484375,-0.029417991638183594,-0.012434050440788269,0.004248261451721191
1772514965532818400,1.687818359375,0.022846221923828125,-0.0030753761529922485,0.009116530418395996
1772514965542883800,1.6978837890625,0.017736434936523438,-0.01271425187587738,0.009193480014801025
1772514965552932900,1.707932861328125,-0.0108184814453125,-0.021889954805374146,0.0044594407081604
1772514965562959000,1.717958984375,0.0034704208374023438,-0.016880810260772705,0.004615128040313721
1772514965573005800,1.728005859375,0.008113861083984375,-0.011854603886604309,0.0093766450881958
1772514965583053000,1.738052978515625,-0.010861396789550781,0.021440058946609497,0.01876729726791382
1772514965593099500,1.748099609375,-0.005982398986816406,0.006892532110214233,0.0044585466384887695
1772514965603149600,1.758149658203125,-0.001186370849609375,-0.00721113383769989,0.0234491229057312
1772514965613196500,1.768196533203125,-0.0011739730834960938,0.021196871995925903,0.03260523080825806
1772514965623241200,1.7782412109375,0.00823974609375,0.00665341317653656,0.013558506965637207
1772514965633288000,1.788287841796875,-0.0013332366943359375,-0.01716551184654236,0.018271565437316895
1772514965643332400,1.798332275390625,-0.010743141174316406,0.011408388614654541,0.01819741725921631
1772514965653379000,1.808379150390625,0.008257865905761719,-0.007472500205039978,-0.005416393280029297
1772514965663430400,1.818430419921875,0.0034189224243164062,-0.01191285252571106,0.013438701629638672
1772514965673477400,1.828477294921875,-0.010775566101074219,0.0025551170110702515,0.004029989242553711
1772514965683525400,1.838525390625,-0.01061248779296875,-0.016379550099372864,-0.005221843719482422
1772514965693572400,1.848572265625,-0.0104522705078125,-0.011462375521659851,0.004512786865234375
1772514965703620600,1.85862060546875,-0.005581855773925781,0.007397934794425964,0.013984501361846924
1772514965713667600,1.86866748046875,0.008615493774414062,-0.011523470282554626,0.014082491397857666
1772514965723709700,1.878709716796875,-0.010387420654296875,-0.0020792335271835327,0.00476151704788208
1772514965733756400,1.88875634765625,-0.0008077621459960938,0.0025995969772338867,0.00010329484939575195
1772514965743790000,1.8987900390625,-0.005519866943359375,0.0024919509887695312,0.005040287971496582
1772514965753835500,1.90883544921875,0.01338958740234375,0.02122040092945099,0.014603793621063232
1772514965763904000,1.918904052734375,-0.005686759948730469,-0.0028483569622039795,-0.00424504280090332
1772514965773951700,1.92895166015625,-0.010317802429199219,0.0018433034420013428,0.00547337532043457
1772514965783993600,1.93899365234375,-0.0007524490356445312,0.015860646963119507,0.010417699813842773
1772514965794040800,1.949040771484375,-0.0007572174072265625,0.0061147212982177734,0.0057659149169921875
1772514965804086500,1.95908642578125,-0.014878273010253906,0.0013404786586761475,0.010508179664611816
1772514965814133800,1.9691337890625,-0.0005197525024414062,-0.008062765002250671,0.010563492774963379
1772514965824181500,1.979181396484375,-0.00052642822265625,-0.007898792624473572,0.02003300189971924
1772514965834228500,1.989228515625,-0.01937580108642578,0.01099616289138794,0.015319645404815674
1772514965844275700,1.999275634765625,-0.009652137756347656,-0.012794449925422668,0.02000337839126587
1772514965854322700,2.00932275390625,-0.0095062255859375,-0.0031210631132125854,0.019902467727661133
1772514965864372700,2.019372802734375,0.009471893310546875,0.0016691386699676514,-0.0037437081336975098
1772514965874420000,2.029419921875,0.014007568359375,-0.007746264338493347,0.029507219791412354
1772514965884461800,2.0394619140625,-0.0003681182861328125,-0.002972915768623352,-0.00842297077178955
1772514965894508500,2.049508544921875,-0.009809494018554688,-0.0029877573251724243,0.010983586311340332
1772514965904571100,2.059571044921875,-0.00025081634521484375,-0.017027392983436584,0.006423532962799072
1772514965914619600,2.06961962890625,-0.000263214111328125,0.006721615791320801,0.011251449584960938
1772514965924649200,2.079649169921875,-0.004985809326171875,0.011146754026412964,0.0065833330154418945
1772514965934695700,2.08969580078125,-0.0002193450927734375,0.0060806721448898315,0.011511266231536865
1772514965944759300,2.09975927734375,0.004475593566894531,-0.017634809017181396,0.006839632987976074
1772514965954807600,2.1098076171875,0.01851940155029297,-0.007887423038482666,0.020981252193450928
1772514965964837600,2.119837646484375,0.013484954833984375,-0.017237424850463867,-0.0026813745498657227
1772514965974883800,2.1298837890625,0.008543968200683594,-0.0027947276830673218,-0.01192617416381836
1772514965984935400,2.139935302734375,-0.0057392120361328125,-0.007420435547828674,0.021463334560394287
1772514965994982400,2.149982421875,-0.010373115539550781,-0.016979679465293884,0.021336078643798828
1772514966005028600,2.160028564453125,-0.010216712951660156,0.011497169733047485,0.030630111694335938
1772514966015075300,2.170075439453125,0.013493537902832031,0.006532579660415649,0.016022980213165283
1772514966025122600,2.18012255859375,0.022678375244140625,-0.002950519323348999,0.011179149150848389
1772514966035169500,2.19016943359375,-0.0059680938720703125,-0.012382909655570984,0.02064049243927002
1772514966045217000,2.200217041015625,-0.010594367980957031,-0.002830415964126587,0.011107683181762695
1772514966055264000,2.210263916015625,-0.010425567626953125,-0.016866058111190796,-0.007780015468597412
1772514966065311500,2.2203115234375,0.008581161499023438,-0.0024228841066360474,0.0017958879470825195
1772514966075358500,2.2303583984375,-0.010406494140625,0.006970301270484924,0.006604313850402832
1772514966085405400,2.240405517578125,-0.014960289001464844,-0.002721443772315979,0.0020180940628051758
1772514966095452400,2.250452392578125,-0.0006036758422851562,-0.012251660227775574,0.025759875774383545
1772514966105521200,2.260521240234375,-0.00531005859375,0.00212135910987854,0.03487980365753174
1772514966115570400,2.2705703125,-0.019369125366210938,0.0021289587020874023,0.029923081398010254
1772514966125590800,2.2805908203125,-0.0002422332763671875,-0.007387921214103699,0.020437777042388916
1772514966135637000,2.290636962890625,0.009161949157714844,-0.007335841655731201,0.015616953372955322
1772514966145683200,2.30068310546875,0.009001731872558594,-0.011885911226272583,0.024903595447540283
1772514966155729400,2.3107294921875,-0.0005731582641601562,0.007189497351646423,0.029328882694244385
1772514966165772500,2.3207724609375,0.008836746215820312,-0.007113799452781677,0.0008208751678466797
1772514966175818500,2.330818603515625,-0.0007381439208984375,0.00707283616065979,0.005647540092468262
1772514966185875200,2.340875244140625,-0.0054416656494140625,-0.021253585815429688,0.010393917560577393
1772514966195922200,2.350922119140625,-0.005368232727050781,-0.025672361254692078,0.015159666538238525
1772514966205969000,2.360968994140625,-0.00058746337890625,0.021777063608169556,0.010428786277770996
1772514966216016000,2.371015869140625,0.01352691650390625,-0.011509746313095093,-0.0035396814346313477
1772514966226061600,2.3810615234375,-0.01967334747314453,-0.006566375494003296,0.0014603734016418457
1772514966236108300,2.3911083984375,0.004185676574707031,-0.011330574750900269,0.0062743425369262695
1772514966246159000,2.4011591796875,0.0040988922119140625,0.002919629216194153,0.01581740379333496
1772514966256206300,2.411206298828125,-0.010111808776855469,-0.006610602140426636,0.01578420400619507
1772514966266249200,2.421249267578125,0.008867263793945312,-0.020690560340881348,0.0017262697219848633
1772514966276296200,2.431296142578125,0.008697509765625,-0.0061903297901153564,0.01615232229232788
1772514966286342400,2.44134228515625,-0.000881195068359375,-0.006151527166366577,0.001987755298614502
1772514966296389000,2.45138916015625,-0.0008831024169921875,-0.006113380193710327,0.021019399166107178
1772514966306438700,2.461438720703125,-0.0008897781372070312,0.008143916726112366,0.016289591789245605
1772514966316485600,2.471485595703125,-0.01973438262939453,-0.010991230607032776,0.011640608310699463
1772514966326532400,2.481532470703125,-0.0005769729614257812,-0.010973095893859863,0.006767094135284424
1772514966336579600,2.49157958984375,-0.009999275207519531,0.008067101240158081,0.006880640983581543
1772514966346624300,2.501624267578125,0.013696670532226562,0.007975593209266663,0.016415536403656006
1772514966356671000,2.5116708984375,0.004038810729980469,-0.011150076985359192,0.025690913200378418
1772514966366720300,2.52172021484375,0.003954887390136719,0.012507647275924683,-0.0027604103088378906
1772514966376767200,2.531767333984375,0.013284683227539062,0.0029116272926330566,-0.0023853182792663574
1772514966386813400,2.5418134765625,0.008337974548339844,0.00750066339969635,0.035551607608795166
1772514966396860400,2.5518603515625,-0.00122833251953125,-0.011529773473739624,-0.0025818943977355957
1772514966406879500,2.56187939453125,-0.005919456481933594,-0.025534242391586304,0.011613845825195312
1772514966416923600,2.571923583984375,0.008297920227050781,-0.001529410481452942,0.020967185497283936
1772514966427002400,2.58200244140625,-0.0059833526611328125,-0.006277099251747131,0.0067231059074401855
1772514966437050000,2.592050048828125,-0.010615348815917969,-0.006243526935577393,-0.007185697555541992
1772514966447096300,2.602096435546875,-0.010466575622558594,0.008029282093048096,0.002785027027130127
1772514966457143800,2.612143798828125,-0.0055980682373046875,-0.01089593768119812,0.026513993740081787
1772514966467184000,2.62218408203125,0.013299942016601562,-0.001354813575744629,0.002962648868560791
1772514966477230800,2.63223095703125,-0.0057811737060546875,0.01263517141342163,0.0032464265823364258
1772514966487282400,2.642282470703125,-0.015125274658203125,0.0029430240392684937,-0.0011850595474243164
1772514966497329700,2.65232958984375,0.00394439697265625,-0.006594225764274597,0.022606074810028076
1772514966507370800,2.662370849609375,0.008581161499023438,-0.0016321688890457153,0.02236098051071167
1772514966517417500,2.67241748046875,-0.0009860992431640625,0.012557119131088257,0.0032836198806762695
1772514966527483000,2.68248291015625,-0.005681037902832031,0.007574751973152161,-0.0014505982398986816
1772514966537531400,2.692531494140625,-0.010313987731933594,0.011992037296295166,0.01763838529586792
1772514966547558700,2.70255859375,-0.005450248718261719,-0.0023911893367767334,0.008159220218658447
1772514966557604900,2.71260498046875,-0.010082244873046875,-0.011732205748558044,0.008253633975982666
1772514966567658500,2.722658447265625,0.01831817626953125,0.002430632710456848,0.027183055877685547
1772514966577705700,2.732705810546875,-0.00083160400390625,0.011742934584617615,0.026859760284423828
1772514966587754200,2.742754150390625,-0.024384498596191406,-0.012053444981575012,0.012619554996490479
1772514966597801500,2.752801513671875,0.004256248474121094,0.016334623098373413,0.0032224655151367188
1772514966607845000,2.76284521484375,0.004178047180175781,-0.0027423501014709473,0.01271367073059082
1772514966617892000,2.77289208984375,0.008806228637695312,-0.007469609379768372,0.036174476146698
1772514966627941600,2.782941650390625,-0.010191917419433594,-0.002700909972190857,0.012259125709533691
1772514966637988900,2.79298876953125,-0.01003265380859375,-0.012137442827224731,0.0027673840522766113
1772514966648036900,2.803036865234375,0.008961677551269531,-0.00719025731086731,0.012268245220184326
1772514966658084000,2.813083984375,0.008798599243164062,-0.012044727802276611,0.02631932497024536
1772514966668131300,2.82313134765625,0.003932952880859375,0.006926000118255615,0.021301865577697754
1772514966678178600,2.833178466796875,0.013260841369628906,-0.0026776641607284546,-0.002267003059387207
1772514966688225500,2.8432255859375,0.008316993713378906,-0.002603396773338318,0.007416367530822754
1772514966698272800,2.853272705078125,-0.02008056640625,-0.007232293486595154,0.03567415475845337
1772514966708329500,2.86332958984375,-0.02446460723876953,-0.007176190614700317,0.01637512445449829
1772514966718377500,2.87337744140625,0.004179954528808594,-0.007020294666290283,0.006915450096130371
1772514966728413200,2.8834130859375,-0.0053234100341796875,-0.002259001135826111,0.02586466073989868
1772514966738460000,2.8934599609375,-0.00994873046875,0.0026175379753112793,0.016144096851348877
1772514966748505900,2.903505859375,-0.0050868988037109375,-0.006699666380882263,0.006690263748168945
1772514966758552600,2.913552490234375,0.004405021667480469,-0.006652370095252991,0.01612567901611328
1772514966768598500,2.9235986328125,-0.019227981567382812,-0.016023054718971252,0.011378705501556396
1772514966778645200,2.933645263671875,0.014031410217285156,0.012531846761703491,0.02093726396560669
1772514966788693200,2.943693359375,0.023204803466796875,-0.0018671751022338867,0.030135273933410645
1772514966798740000,2.953739990234375,-0.010152816772460938,-0.011317625641822815,0.015636920928955078
1772514966808759600,2.963759521484375,-0.0005788803100585938,-0.011286944150924683,0.010799109935760498
1772514966818803700,2.9738037109375,0.0041294097900390625,0.007664501667022705,0.015455424785614014
1772514966828880600,2.983880615234375,-0.0006732940673828125,0.002655908465385437,0.015527844429016113
1772514966838928100,2.99392822265625,0.008736610412597656,-0.011685878038406372,-0.008045494556427002
1772514966848974800,3.003974853515625,-0.0055446624755859375,-0.011555492877960205,0.01105266809463501
1772514966859022300,3.014022216796875,-0.005459785461425781,0.0027991682291030884,0.0062896013259887695
1772514966869068800,3.02406884765625,-0.005385398864746094,-0.006722390651702881,0.025251567363739014
1772514966879116000,3.034115966796875,-0.0006103515625,-0.011383339762687683,0.01574462652206421
1772514966889162500,3.04416259765625,-0.010039329528808594,0.0029684603214263916,0.006396055221557617
1772514966899209700,3.054209716796875,0.004237174987792969,-0.015979766845703125,0.011228442192077637
1772514966909258000,3.064258056640625,0.004158973693847656,-0.015677139163017273,0.020588278770446777
1772514966919305200,3.07430517578125,0.013499259948730469,-0.02008149027824402,0.010959744453430176
1772514966929354000,3.08435400390625,0.013250350952148438,0.0037384480237960815,0.02052748203277588
1772514966939401500,3.0944013671875,0.01772785186767578,-0.010514020919799805,0.020315110683441162
1772514966949446000,3.10444580078125,0.012706756591796875,0.013133123517036438,0.01549619436264038
1772514966959493000,3.1144931640625,-0.006356239318847656,-0.0059845298528671265,0.024885594844818115
1772514966969540400,3.124540283203125,0.007856369018554688,-0.010758459568023682,0.024701297283172607
1772514966979587300,3.13458740234375,-0.006407737731933594,0.0035829097032546997,0.01029360294342041
1772514966989631000,3.144630859375,-0.01572132110595703,-0.01537555456161499,0.005442500114440918
1772514966999677700,3.154677734375,0.0033721923828125,-0.005759835243225098,0.024217307567596436
1772514967009741000,3.164740966796875,0.017426490783691406,0.008491560816764832,0.019333839416503906
1772514967019789600,3.17478955078125,-0.0064258575439453125,-0.001245647668838501,0.02394658327102661
1772514967029822700,3.18482275390625,-0.0016355514526367188,-0.0249394029378891,0.014458835124969482
1772514967039869700,3.19486962890625,0.0030698776245117188,-0.024581462144851685,0.028777480125427246
1772514967049918500,3.20491845703125,0.0029973983764648438,-0.010009706020355225,0.009794652462005615
1772514967059965400,3.21496533203125,-0.006488800048828125,0.00883309543132782,-0.008970439434051514
1772514967070010600,3.2250107421875,-0.011104583740234375,-0.0006950199604034424,0.014952421188354492
1772514967080057600,3.2350576171875,0.0031957626342773438,-0.005463123321533203,0.024248123168945312
1772514967090104600,3.2451044921875,0.0031347274780273438,-0.014752969145774841,0.014556586742401123
1772514967100151300,3.2551513671875,-0.0063533782958984375,-0.009963586926460266,0.009835779666900635
1772514967110196000,3.265196044921875,0.0031528472900390625,0.008972451090812683,0.024028003215789795
1772514967120242700,3.27524267578125,-0.011037826538085938,0.004244580864906311,0.005021512508392334
1772514967130289000,3.285288818359375,-0.0014486312866210938,-0.005106404423713684,0.019294023513793945
1772514967140335600,3.295335693359375,0.017404556274414062,0.0045395344495773315,0.004978477954864502
1772514967150387700,3.3053876953125,0.0029697418212890625,-0.00010100007057189941,0.019354581832885742
1772514967160435000,3.31543505859375,-0.0065135955810546875,-0.009580910205841064,0.009845256805419922
1772514967170479000,3.32547900390625,-0.001708984375,-0.019003450870513916,0.014519453048706055
1772514967180526000,3.335526123046875,-0.0016908645629882812,-0.009340643882751465,0.02853095531463623
1772514967190572300,3.345572265625,0.007746696472167969,0.004970386624336243,0.009348809719085693
1772514967200619300,3.355619384765625,0.026430130004882812,-0.01390385627746582,0.018943309783935547
1772514967210674400,3.36567431640625,0.0071315765380859375,-0.009021297097206116,0.014252424240112305
1772514967220722200,3.37572216796875,0.0069980621337890625,0.005284413695335388,0.018951892852783203
1772514967230750200,3.385750244140625,0.011568069458007812,0.02406691014766693,0.014257967472076416
1772514967240796000,3.3957958984375,-0.0027627944946289062,0.009676963090896606,0.004833579063415527
1772514967250856400,3.4058564453125,-0.012152671813964844,0.004648461937904358,0.014402985572814941
1772514967260903700,3.415903564453125,-0.0072650909423828125,-0.0049172937870025635,0.014492034912109375
1772514967270950400,3.425950439453125,-0.007151603698730469,0.009333401918411255,-0.004452049732208252
1772514967280997600,3.43599755859375,-0.0023317337036132812,0.004505529999732971,0.024003446102142334
1772514967291045600,3.446045654296875,-0.016435623168945312,-0.014475047588348389,0.00970602035522461
1772514967301092900,3.4560927734375,-0.011467933654785156,-0.004773646593093872,0.00035959482192993164
1772514967311121400,3.466121337890625,0.012255668640136719,0.004665479063987732,0.005193769931793213
1772514967321166600,3.47616650390625,0.012048721313476562,0.004523321986198425,0.00984489917755127
1772514967331233500,3.486233642578125,-0.0022993087768554688,-0.004932910203933716,0.010012626647949219
1772514967341281000,3.496281005859375,-0.006993293762207031,-0.009617015719413757,0.0195961594581604
1772514967351327500,3.506327392578125,-0.006893157958984375,0.004604652523994446,0.010082781314849854
1772514967361375000,3.516375,-0.0020933151245117188,0.004456818103790283,0.014952421188354492
1772514967371420400,3.52642041015625,-0.011487960815429688,0.008926063776016235,0.028958678245544434
1772514967381467600,3.536467529296875,0.012231826782226562,-0.014736086130142212,0.033413052558898926
1772514967391510500,3.546510498046875,0.002593994140625,-0.009852975606918335,0.014250099658966064
1772514967401557200,3.55655712890625,-0.006876945495605469,0.004379302263259888,0.009435832500457764
1772514967411619000,3.566619140625,-0.011478424072265625,-0.0003592371940612793,0.009410560131072998
1772514967421667600,3.57666748046875,0.0028171539306640625,-0.00032366812229156494,0.02841717004776001
1772514967431700700,3.58670068359375,-0.01608753204345703,-0.005091190338134766,0.014148473739624023
1772514967441747500,3.59674755859375,-0.011127471923828125,0.00434643030166626,-0.009399890899658203
1772514967451790800,3.606790771484375,-0.006245613098144531,-0.005308210849761963,0.00030368566513061523
1772514967461837300,3.61683740234375,-0.006152153015136719,-0.009986042976379395,0.01455622911453247
1772514967471892500,3.626892578125,-0.010761260986328125,-0.014585956931114197,0.009636163711547852
1772514967481940000,3.63693994140625,0.0035266876220703125,-0.009698674082756042,0.014414548873901367
1772514967491985400,3.6469853515625,0.012872695922851562,-0.018817290663719177,0.028530478477478027
1772514967502032400,3.657032470703125,-0.001468658447265625,0.00036697089672088623,0.013958275318145752
1772514967512079600,3.66707958984375,0.012674331665039062,0.00039711594581604004,0.013855397701263428
1772514967522126800,3.677126953125,-0.011082649230957031,-0.032634079456329346,0.03248792886734009
1772514967532170000,3.687169921875,0.0032129287719726562,-0.008510947227478027,0.01805102825164795
1772514967542216700,3.697216796875,0.021978378295898438,-0.013048142194747925,-0.010273098945617676
1772514967552266800,3.707266845703125,0.007462501525878906,0.005932554602622986,-0.005064189434051514
1772514967562314000,3.71731396484375,0.0026063919067382812,0.010477855801582336,0.02360290288925171
1772514967572359400,3.727359375,0.0025463104248046875,-0.003886967897415161,0.018731355667114258
1772514967582406400,3.737406494140625,0.016613006591796875,0.0008286833763122559,0.009234488010406494
1772514967592454000,3.747453857421875,0.021025657653808594,0.0006430596113204956,0.014017581939697266
1772514967602500900,3.7575009765625,-0.0028781890869140625,0.0005612373352050781,0.01862025260925293
1772514967612546800,3.767546875,0.0018758773803710938,-0.004214420914649963,0.008923828601837158
1772514967622593500,3.777593505859375,-0.0028743743896484375,0.005201876163482666,-0.0005143880844116211
1772514967632638700,3.787638671875,0.006573677062988281,0.014467954635620117,0.013850390911102295
1772514967642685200,3.797685302734375,-0.007686614990234375,-0.009487941861152649,0.028074443340301514
1772514967652757500,3.807757568359375,-0.012281417846679688,-0.023722082376480103,0.004193663597106934
1772514967662806500,3.817806640625,0.020864486694335938,0.014163494110107422,0.013767361640930176
1772514967672830000,3.827829833984375,0.011089324951171875,-0.0002693086862564087,0.023082494735717773
1772514967682876700,3.837876708984375,0.015612602233886719,-0.00022855401039123535,0.018018245697021484
1772514967692921300,3.84792138671875,-0.008207321166992188,-0.004991054534912109,0.022659003734588623
1772514967702967800,3.8579677734375,0.0013294219970703125,-0.00026370584964752197,0.008386015892028809
1772514967713017600,3.868017578125,0.0012922286987304688,0.004485562443733215,0.017893970012664795
1772514967723064300,3.878064208984375,0.0012607574462890625,-0.014494702219963074,0.022432029247283936
1772514967733115000,3.888114990234375,-0.0034694671630859375,0.00461752712726593,0.012670040130615234
1772514967743162000,3.898162109375,-0.012839317321777344,-0.004934340715408325,0.022007882595062256
1772514967753209000,3.908208984375,0.0061969757080078125,-0.0003153681755065918,0.021768808364868164
1772514967763256000,3.918256103515625,0.006091117858886719,-0.00037457048892974854,0.007309317588806152
1772514967773297000,3.928296875,0.0012731552124023438,0.009091809391975403,0.012027859687805176
1772514967783343400,3.93834326171875,-0.012897491455078125,-0.0052499473094940186,0.0027413368225097656
1772514967793395000,3.94839501953125,0.00614166259765625,-0.014637380838394165,0.0028275251388549805
1772514967803442000,3.95844189453125,-0.0033855438232421875,-0.023781076073646545,0.007616698741912842
1772514967813486000,3.968486083984375,0.020208358764648438,0.00030188262462615967,0.021747291088104248
1772514967823532800,3.97853271484375,-0.013100624084472656,0.014257475733757019,0.03564035892486572
1772514967833597700,3.98859765625,0.0059337615966796875,-0.019105732440948486,0.002317070960998535
1772514967843646200,3.998646240234375,0.0058135986328125,0.004791915416717529,-0.0020989179611206055
1772514967853677600,4.008677490234375,-0.0037202835083007812,0.00014691054821014404,0.031228959560394287
1772514967863724500,4.018724609375,-0.017803192138671875,0.009403213858604431,0.030941009521484375
1772514967873772000,4.02877197265625,-0.01751422882080078,0.014004766941070557,0.021142005920410156
1772514967883818800,4.03881884765625,0.015723228454589844,0.004397153854370117,0.002187788486480713
1772514967893863200,4.04886328125,0.0013103485107421875,0.018284529447555542,0.0024824142456054688
1772514967903909600,4.05890966796875,-0.003437042236328125,-0.000919044017791748,-0.0020371079444885254
1772514967913958700,4.068958740234375,0.015439987182617188,-0.010284662246704102,0.007644534111022949
1772514967924005600,4.079005615234375,0.0010356903076171875,0.004048794507980347,0.007848262786865234
1772514967934043000,4.08904296875,-0.017827987670898438,0.004118144512176514,0.007947742938995361
1772514967944088800,4.0990888671875,-0.003421783447265625,0.01811756193637848,0.041007936000823975
1772514967954144000,4.10914404296875,0.0013265609741210938,0.008340641856193542,0.021722793579101562
1772514967964190700,4.119190673828125,0.00128936767578125,-0.015298351645469666,0.016884684562683105
1772514967974241000,4.129240966796875,0.0012531280517578125,-0.0055831968784332275,0.016835927963256836
1772514967984288300,4.139288330078125,-0.00820159912109375,-0.0008460134267807007,-0.0020485520362854004
1772514967994316300,4.14931640625,0.020166397094726562,-0.0011039674282073975,0.0170479416847229
1772514968004361700,4.15936181640625,0.0009899139404296875,0.008166491985321045,0.01208430528640747
1772514968014424300,4.16942431640625,0.0103759765625,-0.006052374839782715,0.026241600513458252
1772514968024471300,4.17947119140625,0.0054779052734375,0.008109822869300842,0.007200360298156738
1772514968034523400,4.1895234375,0.010071754455566406,0.012618765234947205,0.0027031302452087402
1772514968044571000,4.19957080078125,-0.004240989685058594,-0.006591096520423889,0.017014384269714355
1772514968054628900,4.20962890625,-0.004185676574707031,-0.0017363578081130981,0.012252986431121826
1772514968064677400,4.219677490234375,-0.01824951171875,0.003044143319129944,0.012180626392364502
1772514968074691800,4.22969189453125,-0.01324462890625,0.003042936325073242,0.012111067771911621
1772514968084737000,4.239737060546875,0.005803108215332031,-0.0016734153032302856,0.012041032314300537
1772514968094802700,4.249802734375,0.01980876922607422,0.0029984861612319946,0.012172162532806396
1772514968104850000,4.259849853515625,0.0194549560546875,0.002877339720726013,0.002881348133087158
1772514968114896100,4.269896240234375,0.004981040954589844,0.002758234739303589,0.007871150970458984
1772514968124943400,4.279943359375,-0.004544258117675781,0.01667289435863495,0.003362596035003662
1772514968134989000,4.289989013671875,0.0002231597900390625,0.002204790711402893,0.012954235076904297
1772514968145035800,4.300035888671875,-0.01392364501953125,-0.01202218234539032,0.00826030969619751
1772514968155084000,4.310083984375,0.009836196899414062,-0.011785551905632019,0.008353173732757568
1772514968165131300,4.32013134765625,0.00495147705078125,-0.006750255823135376,0.013151049613952637
1772514968175181000,4.33018115234375,0.0095672607421875,-0.016112685203552246,0.017772316932678223
1772514968185228500,4.340228515625,0.0046844482421875,-0.011099278926849365,0.008289456367492676
1772514968195273500,4.3502734375,-0.004825592041015625,0.012664929032325745,0.008381783962249756
1772514968205320700,4.36032080078125,-0.00476837158203125,-0.001736372709274292,0.017990469932556152
1772514968215367200,4.3703671875,-0.004703521728515625,0.007746011018753052,0.008503973484039307
1772514968225414100,4.3804140625,-0.009350776672363281,-0.006573304533958435,0.008592784404754639
1772514968235460000,4.390460205078125,0.009622573852539062,-0.020653963088989258,0.00868004560470581
1772514968245506800,4.4005068359375,-0.004680633544921875,-0.0062416791915893555,0.013476550579071045
1772514968255557000,4.41055712890625,-0.004603385925292969,0.0033158063888549805,0.013280987739562988
1772514968265604400,4.420604248046875,0.014290809631347656,0.0031826943159103394,-0.005548238754272461
1772514968275684900,4.430684814453125,-0.004805564880371094,0.0030650049448013306,0.023128092288970947
1772514968285735400,4.4407353515625,-0.009444236755371094,-0.011176332831382751,0.01345527172088623
1772514968295742700,4.45074267578125,0.00482177734375,0.012482032179832458,0.013458609580993652
1772514968305789000,4.460788818359375,0.004715919494628906,-0.0020236223936080933,0.022980690002441406
1772514968315838200,4.470838134765625,0.004618644714355469,-0.002155095338821411,0.01341104507446289
1772514968325885000,4.480885009765625,-0.009593963623046875,-0.0021836161613464355,0.018025875091552734
1772514968335932700,4.4909326171875,0.004668235778808594,-0.006920278072357178,0.022765278816223145
1772514968345979400,4.5009794921875,0.004569053649902344,-0.006755262613296509,0.03213834762573242
1772514968356022500,4.5110224609375,-0.000232696533203125,-0.00669369101524353,0.022420048713684082
1772514968366068700,4.52106884765625,0.009173393249511719,-0.011261165142059326,0.008149147033691406
1772514968376118300,4.5311181640625,0.004288673400878906,0.0029878467321395874,-0.010489702224731445
1772514968386165000,4.5411650390625,0.004199981689453125,0.012297496199607849,0.004043459892272949
1772514968396212500,4.55121240234375,0.004122734069824219,0.007413536310195923,0.013521075248718262
1772514968406259200,4.56125927734375,-0.005377769470214844,-0.002090930938720703,0.018234848976135254
1772514968416308000,4.571307861328125,-0.0194244384765625,0.007296651601791382,0.018060743808746338
1772514968426355000,4.58135498046875,0.013856887817382812,-0.0023065805435180664,0.027206003665924072
1772514968436400000,4.591400146484375,0.008902549743652344,-0.011662483215332031,0.0034360289573669434
1772514968446447000,4.601447021484375,-0.0006866455078125,0.002579823136329651,0.008414506912231445
1772514968456497000,4.611496826171875,-0.014818191528320312,-0.002242952585220337,0.01792001724243164
1772514968466543900,4.6215439453125,-0.024013519287109375,-0.007079333066940308,0.008535385131835938
1772514968476580000,4.631580078125,-0.009509086608886719,0.011909261345863342,0.018141210079193115
1772514968486626000,4.6416259765625,-0.009371757507324219,0.007031753659248352,0.013459444046020508
1772514968496684300,4.651684326171875,-0.018655776977539062,-0.007275715470314026,0.004149496555328369
1772514968506731500,4.6617314453125,-0.004231452941894531,-0.012034893035888672,0.004208087921142578
1772514968516778500,4.671778564453125,-0.0041713714599609375,-0.002488255500793457,0.023100078105926514
1772514968526825700,4.68182568359375,-0.008822441101074219,0.021239861845970154,-0.0005953311920166016
1772514968536870100,4.6918701171875,0.010149002075195312,0.016112864017486572,0.008961617946624756
1772514968546917000,4.701917236328125,0.005244255065917969,-0.0032625943422317505,0.01855868101119995
1772514968556964400,4.71196435546875,-0.008983612060546875,0.0062385499477386475,0.004352092742919922
1772514968567011300,4.72201123046875,0.009984016418457031,0.006063446402549744,-0.004909098148345947
1772514968577059000,4.73205908203125,-0.018448829650878906,0.005998671054840088,0.009529054164886475
1772514968587106300,4.742106201171875,-0.004032135009765625,0.0011256784200668335,0.023726582527160645
1772514968597150200,4.752150146484375,-0.008698463439941406,0.005650430917739868,0.023662269115447998
1772514968607197000,4.762197021484375,-0.008570671081542969,-0.008633941411972046,0.02349841594696045
1772514968617256700,4.772256591796875,-0.003734588623046875,0.0009567737579345703,0.01391834020614624
1772514968627304700,4.7823046875,-0.02250957489013672,0.0008763968944549561,0.01842409372329712
1772514968637341700,4.792341796875,0.015517234802246094,0.0007974207401275635,0.027764499187469482
1772514968647388700,4.802388671875,0.010533332824707031,0.005730390548706055,0.013507187366485596
1772514968657451300,4.812451171875,0.0009260177612304688,-0.008447855710983276,0.02293217182159424
1772514968667500000,4.8225,-0.008517265319824219,-0.01778198778629303,0.0368075966835022
1772514968677542700,4.832542724609375,0.0010318756103515625,-0.012841448187828064,0.01748955249786377
1772514968687590700,4.842590576171875,-0.017836570739746094,-0.022102341055870056,0.022139251232147217
1772514968697624000,4.8526240234375,-0.012838363647460938,-0.012280583381652832,0.026608526706695557
1772514968707670500,4.86267041015625,0.010910987854003906,0.0020861029624938965,-0.0019567012786865234
1772514968717715500,4.872715576171875,-0.012828826904296875,-0.0026277154684066772,0.0030128955841064453
1772514968727761700,4.88276171875,0.006214141845703125,0.025804579257965088,0.012509703636169434
1772514968737812200,4.892812255859375,0.015522003173828125,-0.0027400553226470947,0.00772249698638916
1772514968747859000,4.90285888671875,0.005828857421875,-0.012176021933555603,0.02665865421295166
1772514968757904600,4.912904541015625,-0.01311492919921875,0.011706814169883728,0.012319087982177734
1772514968767951400,4.922951416015625,0.005930900573730469,-0.007272988557815552,0.007539033889770508
1772514968777996300,4.932996337890625,0.015238761901855469,-0.007209494709968567,0.012253820896148682
1772514968788042800,4.943042724609375,0.010259628295898438,-0.002445206046104431,0.002862870693206787
1772514968798091800,4.953091796875,0.0053653717041015625,-0.011778667569160461,0.02188211679458618
1772514968808138500,4.963138427734375,-0.004164695739746094,-0.002229630947113037,0.0077228546142578125
1772514968818187000,4.97318701171875,0.005305290222167969,-0.0022636353969573975,0.003114044666290283
1772514968828234000,4.98323388671875,0.0052089691162109375,-0.01160682737827301,-0.0015166997909545898
1772514968838277000,4.993277099609375,-0.004311561584472656,-0.006782606244087219,0.0034435391426086426
1772514968848323800,5.00332373046875,0.005146026611328125,-0.0068347156047821045,0.013235211372375488
1772514968858373000,5.013373046875,-0.00437164306640625,0.007454663515090942,0.01324927806854248
1772514968868419800,5.023419921875,-0.004313468933105469,0.007373392581939697,0.017969608306884766
1772514968878480400,5.03348046875,-0.0042514801025390625,-0.002231210470199585,0.008382856845855713
1772514968888528400,5.0435283203125,0.0005092620849609375,-0.025902166962623596,0.013182222843170166
1772514968898561300,5.053561279296875,0.009892463684082031,-0.006807699799537659,0.013291239738464355
1772514968908608000,5.06360791015625,0.000293731689453125,-0.011467278003692627,-0.010242700576782227
1772514968918655700,5.07365576171875,0.00498199462890625,0.017011672258377075,0.023118674755096436
1772514968928702500,5.083702392578125,0.00016689300537109375,0.007239818572998047,0.013645410537719727
1772514968938749700,5.093749755859375,-0.009271621704101562,0.0069472938776016235,-0.000479280948638916
1772514968948796400,5.10379638671875,0.005007743835449219,-0.007257983088493347,0.0042664408683776855
1772514968958842400,5.11384228515625,-0.013911247253417969,-0.016517922282218933,0.004224419593811035
1772514968968889000,5.12388916015625,0.000431060791015625,-0.011497750878334045,0.009093046188354492
1772514968978936000,5.13393603515625,-0.009003639221191406,0.0027552247047424316,0.013779878616333008
1772514968988982800,5.143982666015625,0.0005464553833007812,0.0026448816061019897,0.023197829723358154
1772514968999029500,5.154029541015625,0.014644622802734375,-0.002266228199005127,-0.005207836627960205
1772514969009076200,5.164076171875,0.00026416778564453125,0.002415701746940613,0.01855170726776123
1772514969019127000,5.174126953125,0.009659767150878906,-0.0023976117372512817,0.009055912494659424
1772514969029174300,5.18417431640625,0.00948333740234375,0.007102504372596741,0.018554747104644775
1772514969039220200,5.19422021484375,-0.00482177734375,-0.021224454045295715,0.009161591529846191
1772514969049267200,5.20426708984375,-0.014173507690429688,-0.006715357303619385,0.009237408638000488
1772514969059311400,5.214311279296875,-0.00923919677734375,0.002749338746070862,0.02333897352218628
1772514969069358000,5.224358154296875,0.00032138824462890625,0.002652481198310852,0.02779245376586914
1772514969079404000,5.234404052734375,0.00029468536376953125,-0.002064034342765808,0.004117429256439209
1772514969089450800,5.24445068359375,0.004982948303222656,-0.00200006365776062,0.01840311288833618
1772514969099501000,5.2545009765625,0.009587287902832031,-0.006639048457145691,0.018427729606628418
1772514969109548000,5.264548095703125,0.018829345703125,-0.001783519983291626,0.01835113763809204
1772514969119599900,5.274599853515625,0.004374504089355469,0.007692992687225342,0.013565361499786377
1772514969129647400,5.2846474609375,0.004291534423828125,0.012202218174934387,0.027592897415161133
1772514969139670300,5.294670166015625,0.013620376586914062,0.01663646101951599,0.03206956386566162
1772514969149715500,5.304715576171875,0.0039615631103515625,-0.007154226303100586,0.0223463773727417
1772514969159780900,5.31478076171875,-0.019659996032714844,-0.002189144492149353,0.012787699699401855
1772514969169828000,5.324828125,0.004193305969238281,-0.016336187720298767,0.0222243070602417
1772514969179859200,5.334859130859375,0.008821487426757812,-0.0020091980695724487,0.017272889614105225
1772514969189905000,5.34490478515625,0.013360023498535156,0.002668440341949463,0.003190457820892334
1772514969199969300,5.35496923828125,-0.0010051727294921875,-0.0021491795778274536,0.008076786994934082
1772514969210016800,5.365016845703125,-0.0010118484497070312,0.02136513590812683,0.02239924669265747
1772514969220082700,5.375082763671875,-0.0057220458984375,0.002015918493270874,0.008133172988891602
1772514969230132000,5.385132080078125,-0.0009431838989257812,-0.017017260193824768,0.027163386344909668
1772514969240158700,5.39515869140625,-0.015078544616699219,-0.007481291890144348,0.017624080181121826
1772514969250205700,5.405205810546875,-0.010135650634765625,0.011420011520385742,-0.0012714266777038574
1772514969260251400,5.41525146484375,-0.009974479675292969,0.015981242060661316,0.008298754692077637
1772514969270298000,5.425298095703125,0.009011268615722656,-0.012507110834121704,0.008388996124267578
1772514969280344800,5.4353447265625,0.008851051330566406,-0.021780282258987427,0.008378982543945312
1772514969290391600,5.4453916015625,0.003975868225097656,0.0019605159759521484,-0.0009472966194152832
1772514969300440000,5.455440185546875,0.013314247131347656,0.006471231579780579,0.013324141502380371
1772514969310487000,5.465487060546875,0.008373260498046875,-0.0031115561723709106,0.013233959674835205
1772514969320563700,5.475563720703125,-0.0011911392211914062,0.0016852915287017822,0.01785224676132202
1772514969330613800,5.48561376953125,-0.01531219482421875,0.0016934871673583984,0.017785370349884033
1772514969340631800,5.4956318359375,-0.0009479522705078125,0.001600995659828186,0.00830167531967163
1772514969350678500,5.505678466796875,-0.005663871765136719,-0.012615904211997986,0.013203263282775879
1772514969360718000,5.515718017578125,-0.005579948425292969,-0.0030461549758911133,0.008406400680541992
1772514969370764000,5.525763916015625,-0.024332046508789062,-0.017192304134368896,0.01310265064239502
1772514969380813300,5.535813232421875,-0.0003986358642578125,0.001964882016181946,0.022532105445861816
1772514969390859500,5.545859619140625,0.01371002197265625,0.0018744021654129028,0.01778125762939453
1772514969400910800,5.555910888671875,-0.0053653717041015625,-0.0030306726694107056,-0.005928099155426025
1772514969410957600,5.56595751953125,-0.0005779266357421875,-0.017177075147628784,-0.000992894172668457
1772514969421002200,5.576002197265625,-0.0005788803100585938,-0.012253344058990479,0.003859996795654297
1772514969431048700,5.586048583984375,-0.005290031433105469,0.006922245025634766,0.004026234149932861
1772514969441097200,5.59609716796875,-0.0005083084106445312,-0.0072825998067855835,0.018315553665161133
1772514969451144000,5.60614404296875,-0.0005102157592773438,-0.016642838716506958,0.008723020553588867
1772514969461192400,5.6161923828125,0.013608932495117188,-0.006918683648109436,0.013514816761016846
1772514969471239400,5.626239501953125,0.003941535949707031,0.0025493651628494263,0.008912265300750732
1772514969481293000,5.63629296875,-0.014980316162109375,-0.01629120111465454,0.004386603832244873
1772514969491340800,5.6463408203125,-0.005330085754394531,-0.006660237908363342,0.01396322250366211
1772514969501377000,5.656376953125,-0.009966850280761719,-0.0019116997718811035,0.009250223636627197
1772514969511423500,5.666423583984375,-0.005106925964355469,-0.0018435567617416382,0.014035165309906006
1772514969521482800,5.676482666015625,0.009080886840820312,0.002837955951690674,0.009426355361938477
1772514969531530200,5.6865302734375,-0.005219459533691406,-0.001982375979423523,0.019017696380615234
1772514969541561300,5.696561279296875,-0.014566421508789062,0.002694934606552124,0.00009655952453613281
1772514969551607600,5.706607666015625,0.009199142456054688,-0.006636857986450195,0.005132734775543213
1772514969561660700,5.71666064453125,0.004329681396484375,-0.030046284198760986,0.014590203762054443
1772514969571707600,5.726707763671875,-0.005162239074707031,-0.010782241821289062,0.01908266544342041
1772514969581752300,5.73675244140625,-0.01922130584716797,0.003666907548904419,0.01909780502319336
1772514969591799000,5.746799072265625,0.004620552062988281,-0.0010598301887512207,0.009695589542388916
1772514969601852200,5.75685205078125,0.013945579528808594,0.00370943546295166,0.019183874130249023
1772514969611899400,5.7668994140625,0.013702392578125,0.008291766047477722,0.004868209362030029
1772514969621942500,5.776942626953125,0.018157005310058594,0.007981792092323303,-0.0043010711669921875
1772514969631989200,5.7869892578125,-0.005710601806640625,0.007885053753852844,0.005519092082977295
1772514969642035200,5.79703515625,0.008488655090332031,-0.015746355056762695,0.01046895980834961
1772514969652082000,5.80708203125,0.01775360107421875,-0.010853096842765808,0.010420262813568115
1772514969662132000,5.817132080078125,-0.010801315307617188,-0.005933985114097595,0.000957190990447998
1772514969672179200,5.82717919921875,-0.020044326782226562,-0.010406643152236938,0.01519685983657837
1772514969682226200,5.83722607421875,-0.010310173034667969,-0.010297626256942749,0.019882678985595703
1772514969692273400,5.8472734375,-0.010163307189941406,0.003841310739517212,0.01988464593887329
1772514969702320400,5.8573203125,-0.014719009399414062,0.013130053877830505,0.019783735275268555
1772514969712367600,5.86736767578125,0.004353523254394531,-0.0011715739965438843,0.014877259731292725
1772514969722410500,5.877410400390625,0.0042591094970703125,-0.005824357271194458,0.02437758445739746
1772514969732457200,5.887457275390625,-0.0005350112915039062,-0.015108168125152588,0.010076045989990234
1772514969742489600,5.897489501953125,-0.0005426406860351562,0.013324186205863953,0.02426201105117798
1772514969752535000,5.90753515625,-0.0052547454833984375,0.0035198181867599487,0.01927882432937622
1772514969762601000,5.91760107421875,0.0042476654052734375,0.012813776731491089,0.02369523048400879
1772514969772648200,5.927648193359375,-0.0005340576171875,0.012542471289634705,0.009205639362335205
1772514969782703000,5.937703125,0.004176139831542969,-0.006457924842834473,-0.009650230407714844
1772514969792751000,5.947751220703125,-0.010036468505859375,-0.006414741277694702,0.01899266242980957
1772514969802791400,5.95779150390625,-0.0004596710205078125,-0.015695437788963318,0.0140952467918396
1772514969812838700,5.967838623046875,0.004246711730957031,0.00804467499256134,0.009281575679779053
1772514969822881800,5.9778818359375,0.013576507568359375,-0.006279587745666504,0.023483097553253174
1772514969832928800,5.9879287109375,0.01804351806640625,-0.01556253433227539,0.018611609935760498
1772514969842971600,5.9979716796875,-0.0058155059814453125,-0.0011545121669769287,0.009110629558563232
1772514969853018000,6.00801806640625,-0.024562835693359375,-0.015318796038627625,0.01379925012588501
1772514969863067100,6.018067138671875,-0.005333900451660156,-0.0009014159440994263,0.00909125804901123
1772514969873113900,6.02811376953125,-0.0005435943603515625,0.008573770523071289,0.009071528911590576
1772514969883164000,6.038163818359375,-0.005255699157714844,0.0038593262434005737,0.018568098545074463
1772514969893211000,6.0482109375,-0.009891510009765625,-0.0008773058652877808,0.01848912239074707
1772514969903258400,6.05825830078125,-0.019166946411132812,-0.0009338259696960449,0.018510162830352783
1772514969913305300,6.068305419921875,0.009380340576171875,0.008427783846855164,0.018530845642089844
1772514969923349500,6.078349609375,0.01862621307373047,-0.01051078736782074,0.02786964178085327
1772514969933396200,6.088396240234375,-0.0005340576171875,0.003826454281806946,0.027635693550109863
1772514969943413500,6.09841357421875,-0.009961128234863281,0.0035980045795440674,0.008570551872253418
1772514969953457400,6.10845751953125,-0.0003948211669921875,-0.0012349635362625122,-0.005467593669891357
1772514969963538700,6.11853857421875,0.004307746887207031,-0.0013868361711502075,0.0041689276695251465
1772514969973586200,6.128586181640625,-0.0004892349243164062,-0.020262539386749268,0.01845574378967285
1772514969983634400,6.138634521484375,-0.00049591064453125,-0.0010541677474975586,0.027795851230621338
1772514969993682200,6.14868212890625,0.00420379638671875,-0.0010943412780761719,0.018147945404052734
1772514970003730200,6.158730224609375,0.00882720947265625,-0.010457009077072144,0.018076002597808838
1772514970013777700,6.168777587890625,0.003956794738769531,0.008587926626205444,-0.0008291006088256836
1772514970023822600,6.178822509765625,0.003871917724609375,-0.010554701089859009,-0.0005848407745361328
1772514970033869800,6.188869873046875,-0.000926971435546875,-0.010537266731262207,0.01859259605407715
1772514970043915000,6.1989150390625,-0.0009365081787109375,-0.010526776313781738,0.009196758270263672
1772514970053962200,6.208962158203125,0.008481025695800781,-0.0008978694677352905,0.004565417766571045
1772514970064009200,6.21900927734375,-0.001094818115234375,0.013191819190979004,0.01414114236831665
1772514970074056400,6.229056396484375,-0.005797386169433594,-0.015438064932823181,0.03287172317504883
1772514970084101600,6.2391015625,0.01783466339111328,-0.019853070378303528,0.018327832221984863
1772514970094148600,6.249148681640625,-0.006022453308105469,0.003956332802772522,-0.0005815029144287109
1772514970104222200,6.25922216796875,-0.015359878540039062,0.013040974736213684,0.009076535701751709
1772514970114272000,6.26927197265625,0.0037069320678710938,0.012759163975715637,0.009256601333618164
1772514970124291800,6.279291748046875,-0.005795478820800781,0.007773667573928833,0.018849849700927734
1772514970134338600,6.289338623046875,-0.005709648132324219,-0.006546109914779663,0.0045397281646728516
1772514970144408600,6.29940869140625,0.003787994384765625,-0.0016853362321853638,0.018822968006134033
1772514970154457300,6.309457275390625,0.0037059783935546875,-0.011246323585510254,0.02344644069671631
1772514970164479000,6.31947900390625,-0.024623870849609375,0.002995923161506653,0.009157836437225342
1772514970174525400,6.329525390625,-0.010100364685058594,-0.006334200501441956,0.01394432783126831
1772514970184573700,6.33957373046875,-0.0052471160888671875,0.026667073369026184,0.028168976306915283
1772514970194620200,6.3496201171875,0.008947372436523438,0.011931687593460083,0.013804256916046143
1772514970204667100,6.359667236328125,-0.0006361007690429688,-0.0024573802947998047,0.023221909999847412
1772514970214713600,6.369713623046875,-0.014766693115234375,0.007037043571472168,0.01364821195602417
1772514970224762000,6.37976220703125,-0.0004138946533203125,0.011469870805740356,0.018361985683441162
1772514970234808800,6.389808837890625,-0.00041961669921875,0.001696363091468811,0.008768618106842041
1772514970244850700,6.3998505859375,-0.009840011596679688,-0.012515410780906677,0.008754253387451172
1772514970254897000,6.40989697265625,-0.0238189697265625,0.0017545223236083984,0.0229647159576416
1772514970264950000,6.419949951171875,-0.018728256225585938,-0.012364193797111511,0.013395488262176514
1772514970274997000,6.4299970703125,0.014520645141601562,-0.0075206756591796875,-0.0006242990493774414
1772514970285040600,6.44004052734375,-0.013987541198730469,-0.0026504695415496826,-0.0003834366798400879
1772514970295087000,6.450087158203125,-0.018480300903320312,-0.007379308342933655,0.018687844276428223
1772514970305129500,6.46012939453125,-0.004052162170410156,-0.007119402289390564,0.018506169319152832
1772514970315175700,6.47017578125,-0.013409614562988281,0.0024460256099700928,0.03245127201080322
1772514970325228000,6.48022802734375,-0.013200759887695312,-0.00227375328540802,0.013304710388183594
1772514970335274800,6.490274658203125,-0.008282661437988281,-0.011717483401298523,0.013212740421295166
1772514970345319400,6.5003193359375,-0.008152008056640625,-0.011485934257507324,0.00841367244720459
1772514970355366000,6.510365966796875,0.010807991027832031,-0.0019417554140090942,0.003694593906402588
1772514970365382000,6.5203818359375,0.02003002166748047,-0.020694255828857422,0.013284087181091309
1772514970375425300,6.53042529296875,0.00084686279296875,-0.0014787167310714722,0.018001675605773926
1772514970385511700,6.54051171875,-0.013300895690917969,0.0032842010259628296,0.0037041306495666504
1772514970395559400,6.550559326171875,0.0057430267333984375,-0.0016375631093978882,0.008482813835144043
1772514970405603800,6.560603759765625,0.0009241104125976562,-0.0062759071588516235,0.0038653016090393066
1772514970415651000,6.570651123046875,-0.003814697265625,-0.0014264434576034546,0.022865772247314453
1772514970425698300,6.5806982421875,0.010348320007324219,0.00815148651599884,0.004082202911376953
1772514970435745800,6.590745849609375,-0.008673667907714844,0.008045196533203125,0.004242658615112305
1772514970445795800,6.6007958984375,-0.008543014526367188,0.0076451897621154785,0.009010374546051025
1772514970455843600,6.610843505859375,0.0009975433349609375,-0.016183629631996155,0.009092748165130615
1772514970465887200,6.62088720703125,-0.0037288665771484375,-0.006453752517700195,0.023098111152648926
1772514970475934500,6.6309345703125,0.005733489990234375,-0.011112511157989502,0.004111289978027344
1772514970485983500,6.6409833984375,0.0009012222290039062,0.0032414495944976807,0.004476785659790039
1772514970496030700,6.65103076171875,-0.008538246154785156,0.012647584080696106,0.01395118236541748
1772514970506076000,6.661075927734375,0.005726814270019531,0.002961888909339905,0.01845836639404297
1772514970516123100,6.671123046875,-0.00380706787109375,0.007664099335670471,-0.0003503561019897461
1772514970526170000,6.681170166015625,-0.013171195983886719,-0.0019452422857284546,0.009202420711517334
1772514970536217000,6.691217041015625,-0.012964248657226562,-0.006786540150642395,0.028013169765472412
1772514970546261500,6.701261474609375,0.0013628005981445312,0.002780020236968994,-0.009892046451568604
1772514970556308500,6.71130859375,-0.0033855438232421875,-0.0020393282175064087,0.023463428020477295
1772514970566358500,6.721358642578125,-0.0174713134765625,-0.002063080668449402,0.018596351146697998
1772514970576405800,6.73140576171875,-0.0030755996704101562,-0.006694316864013672,0.009202420711517334
1772514970586450000,6.741449951171875,0.0016689300537109375,0.0028773993253707886,0.018698692321777344
1772514970596496600,6.75149658203125,-0.0077991485595703125,-0.006652161478996277,0.018718183040618896
1772514970606610400,6.7616103515625,0.01114654541015625,0.012133598327636719,0.028057456016540527
1772514970616664000,6.7716640625,0.010943412780761719,0.002449721097946167,0.013694703578948975
1772514970626638000,6.78163818359375,-0.017498016357421875,-0.006972283124923706,0.01830393075942993
1772514970636683800,6.791683837890625,-0.012515068054199219,0.0025033950805664062,0.01823139190673828
1772514970646733800,6.80173388671875,-0.007615089416503906,-0.011735260486602783,0.02286463975906372
1772514970656780000,6.811780029296875,0.001918792724609375,-0.0021869242191314697,0.013196170330047607
1772514970666810600,6.821810546875,0.001865386962890625,0.01671341061592102,0.01330488920211792
1772514970676855000,6.83185498046875,-0.00760650634765625,-0.011881127953529358,-0.0054201483726501465
1772514970686917600,6.841917724609375,-0.0074901580810546875,-0.007032319903373718,0.00892794132232666
1772514970696964000,6.851964111328125,-0.012088775634765625,-0.016296029090881348,0.023135364055633545
1772514970706995200,6.8619951171875,-0.0024824142456054688,-0.01588769257068634,0.004145503044128418
1772514970717039900,6.872039794921875,0.0022459030151367188,0.0032477378845214844,0.013824701309204102
1772514970727103500,6.882103515625,0.011595726013183594,-0.006288111209869385,0.014026820659637451
1772514970737150200,6.892150146484375,0.0019617080688476562,0.003162771463394165,0.0141221284866333
1772514970747186200,6.902186279296875,0.0019054412841796875,0.0030457228422164917,0.018926143646240234
1772514970757231900,6.91223193359375,-0.012267112731933594,0.003031224012374878,-0.004701852798461914
1772514970767294700,6.922294677734375,-0.00737762451171875,-0.015918180346488953,0.01925116777420044
1772514970777342000,6.932342041015625,0.011562347412109375,-0.0015781372785568237,0.000330507755279541
1772514970787390700,6.942390625,-0.002773284912109375,-0.006318151950836182,0.009974777698516846
1772514970797438200,6.952438232421875,0.0019559860229492188,-0.01108655333518982,0.005431115627288818
1772514970807482400,6.962482421875,0.0019159317016601562,-0.006156906485557556,0.010178923606872559
1772514970817529600,6.972529541015625,0.006587028503417969,-0.005917295813560486,0.01955622434616089
1772514970827578600,6.98257861328125,-0.012372016906738281,-0.010490968823432922,0.01946079730987549
1772514970837626000,6.992626220703125,0.0019369125366210938,0.017864331603050232,0.024174153804779053
1772514970847671300,7.00267138671875,0.006603240966796875,-0.01545126736164093,0.009777307510375977
1772514970857718500,7.012718505859375,-0.0029344558715820312,-0.0011323988437652588,0.005035519599914551
1772514970867767000,7.02276708984375,-0.0029001235961914062,-0.005785837769508362,0.014599323272705078
1772514970877814300,7.032814208984375,-0.02170085906982422,-0.019772201776504517,0.0004627108573913574
1772514970887862300,7.0428623046875,-0.011940956115722656,-0.0290316641330719,0.014809191226959229
1772514970897909500,7.052909423828125,0.011784553527832031,-0.023910313844680786,0.014790773391723633
1772514970907954200,7.0629541015625,0.006869316101074219,-0.009443730115890503,0.009967446327209473
1772514970918001400,7.07300146484375,-0.012103080749511719,0.009497001767158508,0.02426236867904663
1772514970928047000,7.083047119140625,-0.00720977783203125,-0.00014956295490264893,0.014669179916381836
1772514970938094000,7.093093994140625,0.0023107528686523438,-0.00021816790103912354,0.009944498538970947
1772514970948141300,7.103141357421875,0.011661529541015625,0.004537016153335571,0.019629836082458496
1772514970958188300,7.113188232421875,-0.007389068603515625,0.004504367709159851,0.033761680126190186
1772514970968237000,7.123237060546875,0.0021305084228515625,-0.0005451440811157227,0.0287209153175354
1772514970978284000,7.133283935546875,-0.0073299407958984375,-0.0004930943250656128,-0.0045861005783081055
1772514970988331000,7.1433310546875,-0.0025005340576171875,-0.00986577570438385,0.009645164012908936
1772514970998378000,7.1533779296875,-0.007182121276855469,-0.0002545565366744995,0.014421403408050537
1772514971008414000,7.1634140625,-0.011781692504882812,0.009095847606658936,0.033142924308776855
1772514971018460000,7.1734599609375,0.007229804992675781,-0.00535331666469574,0.013984501361846924
1772514971028518000,7.183517822265625,0.007092475891113281,0.004088595509529114,0.004564940929412842
1772514971038565000,7.193565185546875,0.00225830078125,-0.005360469222068787,0.014035820960998535
1772514971048610600,7.203610595703125,0.002208709716796875,-0.0007343292236328125,0.023346781730651855
1772514971058657500,7.213657470703125,0.0021486282348632812,-0.0007864981889724731,0.023288846015930176
1772514971068702500,7.223702392578125,0.0020961761474609375,-0.019672170281410217,0.009005308151245117
1772514971078749200,7.233749267578125,-0.007370948791503906,-0.0051822662353515625,0.009085655212402344
1772514971088798200,7.243798095703125,-0.0025548934936523438,0.004357576370239258,0.03270769119262695
1772514971098845200,7.25384521484375,-0.0072422027587890625,0.01844029128551483,0.02307450771331787
1772514971108895200,7.263895263671875,-0.00241851806640625,-0.009981617331504822,0.003985404968261719
1772514971118942700,7.273942626953125,-0.0071086883544921875,-0.00036178529262542725,0.008958697319030762
1772514971128987100,7.283987060546875,-0.0070133209228515625,-0.009837344288825989,0.023266196250915527
1772514971139034400,7.294034423828125,0.011914253234863281,0.004387974739074707,0.023209571838378906
1772514971149082000,7.30408203125,0.006997108459472656,0.0042504072189331055,0.02766108512878418
1772514971159129300,7.31412939453125,-0.0072727203369140625,0.003920465707778931,0.027533292770385742
1772514971169173500,7.324173583984375,-0.016585350036621094,-0.010328352451324463,0.0225982666015625
1772514971179220200,7.33422021484375,0.0025005340576171875,-0.010321319103240967,0.022552788257598877
1772514971189269000,7.34426904296875,0.0024356842041015625,0.003912031650543213,-0.001034855842590332
1772514971199316000,7.35431591796875,-0.0070323944091796875,-0.0009328871965408325,0.01794445514678955
1772514971209357800,7.36435791015625,0.0024785995483398438,-0.0009884387254714966,0.008557140827178955
1772514971219404300,7.374404296875,-0.002292633056640625,-0.0009357184171676636,0.013454198837280273
1772514971229458400,7.38445849609375,0.0024471282958984375,-0.005592435598373413,0.018068373203277588
1772514971239505700,7.394505615234375,0.02592754364013672,-0.0007610619068145752,0.013387739658355713
1772514971249551600,7.404551513671875,0.0019359588623046875,-0.005521401762962341,0.013395071029663086
1772514971259598800,7.414598876953125,-0.016938209533691406,-0.0006845146417617798,0.008592963218688965
1772514971269646000,7.42464599609375,-0.011963844299316406,0.008679628372192383,0.018097400665283203
1772514971279693300,7.434693359375,-0.011788368225097656,0.013172432780265808,-0.0007094740867614746
1772514971299786000,7.454785888671875,0.007399559020996094,0.003490462899208069,0.041836440563201904
1772514971309834200,7.464834228515625,0.007259368896484375,0.0033678412437438965,0.013118088245391846
1772514971319881500,7.474881591796875,-0.011706352233886719,0.012657776474952698,0.003609955310821533
1772514971329942500,7.484942626953125,0.012021064758300781,-0.006452083587646484,-0.005737483501434326
1772514971339991000,7.494990966796875,0.0023822784423828125,-0.01571875810623169,-0.000599980354309082
1772514971350025700,7.505025634765625,-0.0023813247680664062,0.008129104971885681,0.03260236978530884
1772514971360073000,7.515072998046875,-0.007075309753417969,0.0031132102012634277,0.008845150470733643
1772514971370114600,7.525114501953125,-0.0022726058959960938,-0.006426945328712463,-0.000390470027923584
1772514971380161000,7.5351611328125,-0.011659622192382812,-0.001574978232383728,0.009162962436676025
1772514971390210300,7.545210205078125,0.002643585205078125,0.0030954331159591675,0.013949334621429443
1772514971400257300,7.55525732421875,0.016701698303222656,0.007688015699386597,0.03288233280181885
1772514971410304000,7.565303955078125,-0.0071430206298828125,-0.0019217133522033691,0.013831079006195068
1772514971420351000,7.57535107421875,-0.021150588989257812,-0.0065620094537734985,0.008921027183532715
1772514971430418400,7.58541845703125,-0.011395454406738281,0.003000885248184204,0.03254622220993042
1772514971440467500,7.595467529296875,-0.015931129455566406,-0.015954643487930298,0.01339787244796753
1772514971450491400,7.605491455078125,-0.020389556884765625,-0.010943964123725891,0.027530252933502197
1772514971460537900,7.615537841796875,-0.010644912719726562,-0.010617941617965698,0.013178110122680664
1772514971470586400,7.62558642578125,-0.0010652542114257812,0.0037277638912200928,0.013190984725952148
1772514971480633000,7.635633056640625,-0.005772590637207031,0.00831650197505951,-0.0009222030639648438
1772514971490677500,7.645677490234375,-0.0056915283203125,-0.01532880961894989,0.00403207540512085
1772514971500723700,7.6557236328125,-0.005606651306152344,-0.005720540881156921,0.0135117769241333
1772514971510769400,7.665769287109375,0.013308525085449219,0.0036202073097229004,0.00399702787399292
1772514971520815900,7.67581591796875,0.0036525726318359375,-0.0012198388576507568,0.008867323398590088
1772514971530863000,7.685863037109375,-0.010546684265136719,-0.006066501140594482,0.022977113723754883
1772514971540909300,7.695909423828125,0.0037317276000976562,-0.010738402605056763,0.01821666955947876
1772514971550960600,7.705960693359375,-0.005749702453613281,-0.010586708784103394,-0.000907599925994873
1772514971560991200,7.7159912109375,0.0037641525268554688,-0.015052273869514465,0.008536338806152344
1772514971571038200,7.7260380859375,0.008408546447753906,0.004005700349807739,0.017824888229370117
1772514971581086000,7.7360859375,-0.010564804077148438,0.01813812553882599,0.012832939624786377
1772514971591132700,7.746132568359375,-0.0056743621826171875,0.0036827772855758667,0.012532055377960205
1772514971601196000,7.756196044921875,-0.010280609130859375,-0.01043759286403656,0.01694256067276001
1772514971611244500,7.76624462890625,-0.010115623474121094,-0.0007730424404144287,0.01206594705581665
1772514971621288700,7.776288818359375,-0.009962081909179688,-0.005496025085449219,0.007371246814727783
1772514971631337000,7.7863369140625,-0.00037288665771484375,-0.0007231086492538452,-0.006964385509490967
1772514971641383000,7.7963828125,0.009057998657226562,-0.010041430592536926,0.011903166770935059
1772514971651431000,7.806430908203125,-0.005225181579589844,-0.005092069506645203,0.007110536098480225
1772514971661477400,7.816477294921875,0.008985519409179688,-0.0050344765186309814,-0.007120072841644287
1772514971671525000,7.826525146484375,-0.005282402038574219,-0.0001685619354248047,0.002328813076019287
1772514971681568800,7.83656884765625,-0.00989532470703125,-0.004800960421562195,0.01162022352218628
1772514971691616300,7.8466162109375,-0.005028724670410156,-0.0046542733907699585,0.0021216869354248047
1772514971701667800,7.856667724609375,-0.014370918273925781,0.01423710584640503,0.021037161350250244
1772514971711715600,7.866715576171875,0.014116287231445312,0.004447966814041138,0.006572425365447998
1772514971721776600,7.876776611328125,-0.000244140625,0.004454061388969421,0.006478667259216309
1772514971731825700,7.88682568359375,-0.0002346038818359375,0.00435929000377655,0.0062857866287231445
1772514971741873400,7.896873291015625,-0.009642601013183594,0.004259362816810608,-0.008031725883483887
1772514971751922400,7.90692236328125,0.014052391052246094,-0.0005407631397247314,0.006344318389892578
1772514971761950000,7.916949951171875,0.013810157775878906,0.008858218789100647,0.015769898891448975
1772514971771996700,7.92699658203125,0.0041561126708984375,0.004075393080711365,0.010912835597991943
1772514971782043100,7.937043212890625,0.0040874481201171875,-0.010044917464256287,0.006036043167114258
1772514971792089900,7.94708984375,0.008719444274902344,0.008943051099777222,0.024888277053833008
1772514971802135800,7.9571357421875,0.008575439453125,-0.0005497932434082031,0.015069961547851562
1772514971812182300,7.967182373046875,-0.010410308837890625,0.004140689969062805,0.010224580764770508
1772514971822230500,7.97723046875,-0.01023101806640625,-0.010081365704536438,0.02409297227859497
1772514971832277200,7.98727734375,0.004073143005371094,-0.009846687316894531,0.00947660207748413
1772514971842324500,7.997324462890625,-0.010114669799804688,-0.005001246929168701,0.013940274715423584
1772514971852371500,8.007371337890625,-0.005223274230957031,0.013996616005897522,0.02293950319290161
1772514971862418400,8.01741845703125,0.018407821655273438,-0.00499764084815979,0.013153672218322754
1772514971872465200,8.027465087890626,0.0039730072021484375,-0.00023302435874938965,0.0035309195518493652
1772514971882515000,8.037514892578125,-0.0008058547973632812,-0.00978107750415802,0.008192300796508789
1772514971892562200,8.047562255859376,0.02275371551513672,0.004379764199256897,0.003260195255279541
1772514971902604300,8.057604248046875,-0.0011768341064453125,0.01839853823184967,0.0033180713653564453
1772514971912651000,8.067651123046875,0.003559112548828125,-0.0006690770387649536,0.003175795078277588
1772514971922696400,8.077696533203126,-0.01062774658203125,-0.005387037992477417,0.017264366149902344
1772514971932743000,8.087742919921874,0.0036764144897460938,-0.014647811651229858,-0.0018461346626281738
1772514971942770700,8.097770751953124,0.008321762084960938,-0.00030513107776641846,-0.011218905448913574
1772514971952815400,8.1078154296875,-0.010645866394042969,0.004381284117698669,0.012424051761627197
1772514971962885600,8.1178857421875,-0.010462760925292969,-0.0004276782274246216,0.0074211955070495605
1772514971972932900,8.127932861328125,-0.010290145874023438,0.00896260142326355,-0.0021080374717712402
1772514971982977800,8.137977783203125,0.018140792846679688,-0.00523240864276886,0.011967957019805908
1772514971993025000,8.14802490234375,-0.005692481994628906,-0.01928471028804779,0.006876349449157715
1772514972003074000,8.158073974609374,-0.010303497314453125,0.004451677203178406,0.01609194278717041
1772514972013121500,8.16812158203125,0.013402938842773438,0.00905880331993103,0.0018123388290405273
1772514972023167200,8.178167236328125,0.0084686279296875,-0.02407960593700409,-0.0029128193855285645
1772514972033214500,8.18821435546875,-0.019921302795410156,0.004438549280166626,0.02058964967727661
1772514972043260700,8.1982607421875,-0.010175704956054688,-0.00047194957733154297,0.010842978954315186
1772514972053307600,8.2083076171875,0.004120826721191406,0.013735085725784302,0.005967319011688232
1772514972063356200,8.218356201171876,-0.005367279052734375,-0.005369037389755249,0.010586082935333252
1772514972073403100,8.228403076171874,0.013554573059082031,-0.01943260431289673,0.0010061264038085938
1772514972083450000,8.2384501953125,0.0039119720458984375,-0.0049095600843429565,0.0010030269622802734
1772514972093497000,8.2484970703125,-0.0008687973022460938,-0.004747554659843445,-0.0036059021949768066
1772514972103545600,8.258545654296874,-0.019695281982421875,-0.018707245588302612,-0.00813591480255127
1772514972113592800,8.2685927734375,-0.01465606689453125,0.000612989068031311,-0.003278076648712158
1772514972123636500,8.278636474609375,-0.0002803802490234375,-0.00413985550403595,-0.008021116256713867
1772514972133683200,8.28868310546875,-0.009687423706054688,-0.00880672037601471,0.010859966278076172
1772514972143727400,8.298727294921875,-0.004810333251953125,0.010241016745567322,0.01529848575592041
1772514972153774000,8.308774169921875,-0.00001430511474609375,-0.003982052206993103,0.005539357662200928
1772514972163827000,8.318826904296875,-0.009432792663574219,-0.008651554584503174,0.0007521510124206543
1772514972173874200,8.328874267578126,-0.004559516906738281,0.0009900033473968506,0.005363285541534424
1772514972183916500,8.33891650390625,-0.004477500915527344,-0.008470937609672546,0.028729915618896484
1772514972193963300,8.34896337890625,0.00029754638671875,-0.003648430109024048,0.009531080722808838
1772514972204015400,8.359015380859375,-0.004410743713378906,0.005795478820800781,-0.0001341104507446289
1772514972214062600,8.3690625,-0.009039878845214844,0.0009630322456359863,0.004489719867706299
1772514972224105200,8.379105224609376,-0.004187583923339844,-0.0036950409412384033,0.004527091979980469
1772514972244203800,8.399203857421876,0.00040721893310546875,-0.003710433840751648,-0.00944507122039795
1772514972254251000,8.4092509765625,-0.004311561584472656,0.005640655755996704,0.02368617057800293
1772514972264297200,8.419297119140625,-0.01364898681640625,0.0009114295244216919,0.0043700337409973145
1772514972274344400,8.429344482421875,0.005415916442871094,0.00577208399772644,-0.0051084160804748535
1772514972284391400,8.439391357421876,0.014740943908691406,0.010350406169891357,-0.0003031492233276367
1772514972294438400,8.4494384765625,0.009784698486328125,-0.003968343138694763,0.004426181316375732
1772514972304483800,8.45948388671875,0.000209808349609375,0.01020309329032898,-0.000441133975982666
1772514972314530800,8.46953076171875,0.00492095947265625,0.005297183990478516,0.004187822341918945
1772514972324579300,8.479579345703126,-0.013987541198730469,0.0005737096071243286,-0.0006775259971618652
1772514972334626600,8.48962646484375,-0.009044647216796875,-0.008779644966125488,0.00876462459564209
1772514972344688000,8.499688232421875,0.005232810974121094,0.0008505582809448242,0.008630156517028809
1772514972354736600,8.509736572265625,-0.004263877868652344,-0.0038056224584579468,0.008397221565246582
1772514972364768300,8.519768310546874,-0.004192352294921875,-0.0036689192056655884,-0.0011462569236755371
1772514972374815200,8.529815185546875,-0.008832931518554688,0.01049073040485382,-0.015239298343658447
1772514972384859400,8.539859375,0.005435943603515625,0.0007639974355697632,-0.010265171527862549
1772514972394906000,8.549906005859375,-0.0040740966796875,0.005432590842247009,-0.010080456733703613
1772514972404939500,8.559939453125,-0.008716583251953125,-0.008817747235298157,0.004224956035614014
1772514972414984700,8.569984619140625,0.005555152893066406,0.0008197873830795288,-0.005248963832855225
1772514972425049900,8.5800498046875,0.014873504638671875,-0.013232529163360596,-0.005042850971221924
1772514972435097000,8.59009716796875,0.000507354736328125,-0.008230000734329224,0.0043714046478271484
1772514972445141500,8.6001416015625,-0.00421142578125,0.010714277625083923,-0.009813547134399414
1772514972455188500,8.6101884765625,-0.0041446685791015625,0.0009905993938446045,-0.009636342525482178
1772514972465263600,8.620263671875,0.0006313323974609375,-0.003755033016204834,0.009374380111694336
1772514972475313700,8.630313720703125,0.010029792785644531,0.005697458982467651,0.009332478046417236
1772514972485328100,8.640328125,-0.013682365417480469,0.005575314164161682,0.01389920711517334
1772514972495374300,8.650374267578124,-0.018159866333007812,0.010069862008094788,0.01358264684677124
1772514972505426000,8.660426025390626,-0.008446693420410156,0.005273669958114624,-0.0006530284881591797
1772514972515472600,8.67047265625,-0.013016700744628906,0.009867101907730103,-0.0006284713745117188
1772514972525522400,8.6805224609375,0.0013265609741210938,-0.009058311581611633,0.018230080604553223
1772514972535569700,8.690569580078124,0.01071929931640625,-0.004226014018058777,0.00852268934249878
1772514972545612300,8.7006123046875,-0.008288383483886719,-0.004169240593910217,0.00829780101776123
1772514972555659000,8.710658935546874,-0.0034437179565429688,-0.018245995044708252,-0.005950570106506348
1772514972565704400,8.720704345703124,0.0060291290283203125,0.014977380633354187,-0.0011333227157592773
1772514972575751200,8.730751220703125,0.0106201171875,0.0004672706127166748,0.008515655994415283
1772514972585801000,8.740801025390626,-0.0036821365356445312,-0.00888429582118988,0.008387446403503418
1772514972595847700,8.75084765625,-0.008315086364746094,-0.013364642858505249,0.01277071237564087
1772514972605894100,8.76089404296875,0.0012416839599609375,0.001057252287864685,-0.001554250717163086
1772514972615941000,8.770941162109375,-0.0034942626953125,0.010530203580856323,-0.006122589111328125
1772514972625988600,8.780988525390624,0.001277923583984375,0.0009170472621917725,0.012728869915008545
1772514972636035600,8.79103564453125,-0.008146286010742188,0.0009751468896865845,0.0029119253158569336
1772514972646084000,8.801083984375,-0.00800323486328125,0.005734071135520935,-0.00664287805557251
1772514972656131000,8.811131103515624,-0.007878303527832031,-0.003799140453338623,0.012418627738952637
1772514972666176300,8.82117626953125,-0.012463569641113281,0.015064477920532227,0.002906620502471924
1772514972676223000,8.831222900390625,0.0065746307373046875,-0.008555546402931213,-0.0064446330070495605
1772514972686272300,8.841272216796876,0.015883445739746094,0.0010776221752166748,-0.001614987850189209
1772514972696319500,8.851319580078124,0.0014934539794921875,0.015258818864822388,0.0031341910362243652
1772514972706384600,8.861384521484375,0.006175041198730469,-0.017982959747314453,-0.011030077934265137
1772514972716433700,8.87143359375,0.015485763549804688,-0.0036786049604415894,-0.006121933460235596
1772514972726460700,8.881460693359376,0.0011043548583984375,0.015089407563209534,0.0033105015754699707
1772514972736507400,8.89150732421875,0.010503768920898438,-0.008638471364974976,-0.0014417171478271484
1772514972746551000,8.901551025390624,0.0009174346923828125,-0.013223543763160706,0.012623190879821777
1772514972756597500,8.911597412109375,-0.01792430877685547,-0.022346973419189453,-0.006508529186248779
1772514972766645200,8.921645263671875,0.0012073516845703125,0.0015411823987960815,0.007739365100860596
1772514972776692000,8.93169189453125,0.005887031555175781,-0.007922142744064331,0.003018200397491455
1772514972786737200,8.941737060546876,-0.008322715759277344,-0.007709935307502747,-0.0019262433052062988
1772514972796783600,8.95178369140625,-0.0034770965576171875,-0.002893298864364624,-0.006587028503417969
1772514972806834000,8.961833984375,-0.008127212524414062,0.006645515561103821,0.00766223669052124
1772514972816880600,8.971880615234374,0.0014333724975585938,0.006614953279495239,0.0027410387992858887
1772514972826926800,8.9819267578125,0.006123542785644531,0.0017756521701812744,-0.0020981431007385254
1772514972836973600,8.9919736328125,-0.008090019226074219,0.011236622929573059,0.016583561897277832
1772514972847004000,9.00200390625,-0.0032405853271484375,-0.0031036585569381714,-0.0026140213012695312
1772514972857049000,9.012049072265626,-0.026731491088867188,-0.007794603705406189,0.0021497011184692383
1772514972867108900,9.02210888671875,0.0019664764404296875,-0.0028894543647766113,-0.01670891046524048
1772514972877155300,9.0321552734375,0.006633758544921875,0.011257216334342957,-0.006898939609527588
1772514972887209200,9.042209228515626,0.015941619873046875,0.015858426690101624,0.0026490092277526855
1772514972897256400,9.05225634765625,0.015671730041503906,0.0013335943222045898,0.00732499361038208
1772514972907300600,9.062300537109374,0.015401840209960938,0.005992710590362549,0.0026085972785949707
1772514972917347600,9.07234765625,-0.0036878585815429688,0.0012576282024383545,0.007287383079528809
1772514972927398400,9.0823984375,0.0010833740234375,0.006011843681335449,-0.016365408897399902
1772514972937446000,9.09244580078125,0.010474205017089844,0.005877569317817688,0.016979753971099854
1772514972947491000,9.102490966796875,0.005580902099609375,-0.003779113292694092,0.002681136131286621
1772514972957538000,9.1125380859375,-0.0039310455322265625,-0.003750219941139221,0.002647995948791504
1772514972967587300,9.12258740234375,0.005549430847167969,0.015119388699531555,-0.01150822639465332
1772514972977634800,9.132634765625,-0.00395965576171875,-0.0038935691118240356,-0.011302769184112549
1772514972987680800,9.1426806640625,-0.008610725402832031,0.014971613883972168,-0.015710771083831787
1772514972997728000,9.15272802734375,0.000946044921875,0.014594167470932007,-0.006018102169036865
1772514973007770400,9.162770263671876,0.0009374618530273438,-0.009111881256103516,0.0034145116806030273
1772514973017817000,9.172817138671874,0.00563812255859375,0.0005305558443069458,-0.0014379620552062988
1772514973027870000,9.182869873046876,0.005537986755371094,0.01942269504070282,-0.006010293960571289
1772514973037917200,9.192917236328125,0.010146141052246094,0.009654536843299866,0.013038575649261475
1772514973047963100,9.202963134765625,-0.013560295104980469,0.000049173831939697266,0.012734293937683105
1772514973058010400,9.21301025390625,-0.008625030517578125,0.004816710948944092,-0.001594245433807373
1772514973068058400,9.223058349609374,0.010354042053222656,0.00950479507446289,0.0031504034996032715
1772514973078105600,9.233105712890625,0.014890670776367188,-0.00942140817642212,0.021943867206573486
1772514973088148700,9.243148681640625,-0.018310546875,0.004941567778587341,-0.002049684524536133
1772514973098195500,9.253195556640625,0.0055389404296875,0.004925772547721863,-0.002003908157348633
1772514973118290000,9.2732900390625,-0.0036716461181640625,0.014354780316352844,0.002794325351715088
1772514973128338700,9.283338623046875,0.005805015563964844,-0.004746109247207642,0.0074700117111206055
1772514973138385700,9.2933857421875,-0.008420944213867188,-0.009510353207588196,-0.0020600557327270508
1772514973148433200,9.30343310546875,-0.008284568786621094,-0.004771173000335693,-0.0020120739936828613
1772514973158480100,9.313480224609375,-0.012852668762207031,0.009306207299232483,-0.00677412748336792
1772514973168523800,9.323523681640625,-0.0079193115234375,-0.014519736170768738,0.007277011871337891
1772514973178570500,9.333570556640625,0.001621246337890625,-0.004887819290161133,0.007270097732543945
1772514973188621300,9.343621337890625,-0.007822036743164062,0.009386003017425537,0.01657778024673462
1772514973198668500,9.35366845703125,0.01584911346435547,-0.009618431329727173,0.016319215297698975
1772514973208686600,9.3636865234375,0.010861396789550781,-0.009485304355621338,-0.016698598861694336
1772514973218730800,9.373730712890625,0.005965232849121094,-0.004552081227302551,-0.0021822452545166016
1772514973228812000,9.38381201171875,-0.012969970703125,-0.013913929462432861,0.011995673179626465
1772514973238860300,9.3938603515625,0.010789871215820312,-0.008900046348571777,0.007100820541381836
1772514973248903000,9.40390283203125,-0.0035104751586914062,-0.00406356155872345,0.016314804553985596
1772514973258950700,9.41395068359375,0.005961418151855469,0.0005916506052017212,-0.0027757883071899414
1772514973268996900,9.423996826171875,0.015276908874511719,0.005269929766654968,0.006703376770019531
1772514973279044000,9.434044189453125,0.005602836608886719,0.0004394054412841797,-0.007522523403167725
1772514973289090300,9.44409033203125,-0.003902435302734375,-0.013727784156799316,-0.01219475269317627
1772514973299137500,9.454137451171874,0.01970672607421875,-0.008723825216293335,0.016271591186523438
1772514973309183000,9.464182861328124,-0.0041637420654296875,0.000918954610824585,-0.007526874542236328
1772514973319230200,9.474230224609375,0.0006170272827148438,0.02432548999786377,-0.0074863433837890625
1772514973329279500,9.484279541015624,0.005316734313964844,0.004857048392295837,-0.007448554039001465
1772514973339326700,9.49432666015625,0.0005178451538085938,-0.004675179719924927,-0.002604186534881592
1772514973349374500,9.50437451171875,-0.013615608215332031,0.00019153952598571777,0.002163529396057129
1772514973359422000,9.514421875,0.0007381439208984375,0.0002685636281967163,-0.002565443515777588
1772514973369467600,9.524467529296874,0.010136604309082031,0.005046054720878601,0.007008850574493408
1772514973379515000,9.534514892578125,-0.013584136962890625,-0.013906508684158325,-0.007121443748474121
1772514973389557500,9.5445576171875,0.0007610321044921875,0.00523298978805542,-0.002179861068725586
1772514973399604200,9.554604248046875,0.014872550964355469,-0.004305511713027954,-0.006840527057647705
1772514973409702700,9.56470263671875,-0.013635635375976562,-0.008962899446487427,0.007516264915466309
1772514973419754500,9.57475439453125,0.01012420654296875,-0.004239752888679504,-0.006622493267059326
1772514973429760800,9.5847607421875,-0.004180908203125,-0.00900508463382721,-0.006398260593414307
1772514973439808300,9.594808349609375,0.000591278076171875,-0.018198788166046143,0.007948517799377441
1772514973449845200,9.60484521484375,-0.004134178161621094,0.024555176496505737,0.007930278778076172
1772514973459891500,9.614891357421875,0.000637054443359375,0.0053849369287490845,0.003203868865966797
1772514973469937700,9.624937744140626,0.00533294677734375,-0.004149258136749268,-0.006253063678741455
1772514973479983900,9.63498388671875,-0.013585090637207031,-0.004107370972633362,-0.001527249813079834
1772514973490031400,9.64503125,-0.003933906555175781,-0.003958716988563538,-0.01100391149520874
1772514973500077800,9.655077880859375,0.0008478164672851562,-0.003812551498413086,0.0032203197479248047
1772514973510126300,9.665126220703126,0.0008296966552734375,0.019974827766418457,0.007991671562194824
1772514973520172800,9.6751728515625,0.02435016632080078,0.0054820626974105835,0.0032621026039123535
1772514973530208300,9.685208251953124,0.02865123748779297,0.005356639623641968,-0.01561504602432251
1772514973540253700,9.695253662109375,0.009337425231933594,0.0005314946174621582,-0.005923926830291748
1772514973550314500,9.705314453125,-0.00022983551025390625,-0.00892186164855957,-0.0012037158012390137
1772514973560361700,9.71536181640625,0.009202957153320312,0.005325347185134888,-0.0013713240623474121
1772514973570408200,9.725408203125,-0.005078315734863281,-0.008909657597541809,-0.0013327598571777344
1772514973580455200,9.735455078125,-0.009693145751953125,0.0008300840854644775,-0.015523314476013184
1772514973590501000,9.745501220703124,0.0045871734619140625,-0.003812164068222046,-0.005730986595153809
1772514973600548000,9.755548095703125,-0.009621620178222656,0.0010333657264709473,0.003896057605743408
1772514973610604300,9.765604248046875,-0.0047454833984375,-0.003625810146331787,0.017867743968963623
1772514973620652000,9.775652099609376,-0.009373664855957031,-0.00819377601146698,-0.0012487173080444336
1772514973630686700,9.785686767578126,0.009619712829589844,0.0062492042779922485,0.008204996585845947
1772514973640733200,9.795733154296874,0.0000400543212890625,0.015534967184066772,0.012790501117706299
1772514973650784500,9.805784423828126,0.009446144104003906,-0.0036863088607788086,0.007983148097991943
1772514973660831500,9.81583154296875,0.013993263244628906,0.0009557902812957764,-0.01567918062210083
1772514973670877200,9.825877197265624,-0.00036334991455078125,0.005822494626045227,0.003430187702178955
1772514973680924000,9.835923828125,-0.01919078826904297,-0.003625154495239258,0.01751035451889038
1772514973690967300,9.84596728515625,0.01879405975341797,-0.003692626953125,-0.0016021728515625
1772514973701013800,9.856013671875,0.0043468475341796875,0.005752012133598328,-0.006171822547912598
1772514973711048000,9.8660478515625,-0.014561653137207031,0.005628898739814758,0.0033618807792663574
1772514973721093400,9.87609326171875,0.0045166015625,0.005608469247817993,0.0033195018768310547
1772514973731157200,9.8861572265625,0.009150505065917969,0.010290279984474182,0.003275752067565918
1772514973741204500,9.89620458984375,0.013704299926757812,0.000674322247505188,-0.010890960693359375
1772514973751256000,9.906256103515625,-0.000644683837890625,-0.01349678635597229,-0.01079857349395752
1772514973761303600,9.916303466796874,-0.0053348541259765625,-0.0037880688905715942,0.008126676082611084
1772514973771347000,9.926346923828126,0.013588905334472656,0.0057656168937683105,0.008004903793334961
1772514973781394000,9.936393798828124,0.013360977172851562,-0.00847671926021576,0.0031785964965820312
1772514973791441000,9.94644091796875,-0.005698204040527344,0.0010544806718826294,-0.010986506938934326
1772514973801488000,9.95648779296875,0.003814697265625,-0.0035982877016067505,0.003336012363433838
1772514973811545900,9.9665458984375,0.00846099853515625,0.010660946369171143,-0.001414477825164795
1772514973821594000,9.976593994140625,0.017730712890625,0.0011394917964935303,-0.005985140800476074
1772514973831639800,9.986639892578125,-0.001407623291015625,-0.0036153644323349,0.008354723453521729
1772514973841687800,9.996687744140624,0.008026123046875,-0.008183494210243225,0.008331894874572754
1772514973851718400,10.006718505859375,0.012601852416992188,-0.0032652169466018677,0.008206665515899658
1772514973861764600,10.0167646484375,-0.0064525604248046875,-0.0033319443464279175,0.0034776926040649414
1772514973871814100,10.026814208984375,-0.011055946350097656,0.0014048963785171509,-0.015400946140289307
1772514973881860600,10.036860595703125,-0.0061664581298828125,0.010972738265991211,-0.010321319103240967
1772514973891912700,10.04691259765625,-0.001354217529296875,-0.007964268326759338,0.008700847625732422
1772514973901960000,10.0569599609375,-0.00603485107421875,-0.003143414855003357,0.008470892906188965
1772514973912005400,10.06700537109375,-0.0012273788452148438,-0.01253548264503479,-0.005782425403594971
1772514973922052400,10.07705224609375,-0.001201629638671875,0.011182323098182678,-0.0010665655136108398
1772514973932100000,10.08710009765625,0.0035409927368164062,0.0063675642013549805,0.008182764053344727
1772514973942147000,10.09714697265625,-0.005936622619628906,0.006234169006347656,0.012768685817718506
1772514973952175000,10.107175048828125,-0.015265464782714844,-0.0034146159887313843,0.007961392402648926
1772514973962220300,10.11722021484375,-0.01971912384033203,-0.007992923259735107,-0.0015748143196105957
1772514973972278000,10.127278076171875,0.022985458374023438,0.006238773465156555,0.007882356643676758
1772514973982324500,10.137324462890625,0.008467674255371094,0.0013921260833740234,0.01257181167602539
1772514973992383500,10.147383544921874,0.022455215454101562,0.005942597985267639,-0.006561279296875
1772514974002431200,10.15743115234375,-0.0061740875244140625,0.005722403526306152,0.0029810070991516113
1772514974012474600,10.167474609375,-0.006081581115722656,0.010207712650299072,-0.006371498107910156
1772514974022522000,10.177522216796875,0.022269248962402344,0.005294904112815857,-0.010962307453155518
1772514974032551700,10.1875517578125,0.012472152709960938,-0.004237756133079529,-0.0012482404708862305
1772514974042597000,10.19759716796875,-0.0018558502197265625,-0.004187598824501038,0.017521977424621582
1772514974052677000,10.207677001953124,-0.011248588562011719,-0.01346135139465332,0.007927536964416504
1772514974062726000,10.217725830078125,0.012477874755859375,0.010177984833717346,0.007809102535247803
1772514974072759600,10.227759521484375,0.0028533935546875,0.005064606666564941,0.002881467342376709
1772514974082806800,10.237806884765625,0.002803802490234375,0.004952922463417053,-0.006570041179656982
1772514974092852500,10.2478525390625,0.0027647018432617188,-0.009182006120681763,0.0028696656227111816
1772514974102899700,10.257899658203126,0.021558761596679688,0.005069538950920105,0.002734839916229248
1772514974112948500,10.267948486328125,-0.0023374557495117188,0.0002491772174835205,0.021436572074890137
1772514974122995700,10.27799560546875,-0.0070018768310546875,0.014343515038490295,-0.002550661563873291
1772514974133041400,10.28804150390625,-0.011600494384765625,0.004774302244186401,0.0023189187049865723
1772514974143088400,10.29808837890625,0.0027284622192382812,0.00016705691814422607,-0.0025132298469543457
1772514974153131500,10.308131591796876,-0.0020246505737304688,-0.009186357259750366,-0.0071683526039123535
1772514974163178200,10.31817822265625,-0.025537490844726562,0.004964560270309448,0.01650780439376831
1772514974173227000,10.32822705078125,-0.0015726089477539062,-0.004670172929763794,-0.0025900602340698242
1772514974183274000,10.33827392578125,-0.0062541961669921875,0.00489826500415802,-0.007241785526275635
1772514974193322200,10.348322265625,0.012691497802734375,0.009605437517166138,0.011628329753875732
1772514974203369200,10.358369140625,-0.00164794921875,0.004709482192993164,-0.0026775598526000977
1772514974213414400,10.368414306640625,-0.0016193389892578125,-0.004712790250778198,-0.0026192665100097656
1772514974223461000,10.378461181640626,0.007830619812011719,-0.014078691601753235,0.0020459890365600586
1772514974233505800,10.388505859375,0.017107009887695312,-0.004554778337478638,0.0021262168884277344
1772514974243552500,10.398552490234374,0.012116432189941406,-0.009308606386184692,-0.0027027130126953125
1772514974253607000,10.40860693359375,0.002498626708984375,0.02388015389442444,0.016190409660339355
1772514974263654400,10.418654296875,-0.006958961486816406,-0.0000010579824447631836,0.011221587657928467
1772514974273695700,10.42869580078125,0.011989593505859375,0.02822326123714447,0.001631021499633789
1772514974283742500,10.438742431640625,0.0070819854736328125,0.013707339763641357,-0.007797598838806152
1772514974293789000,10.448788818359375,-0.007168769836425781,-0.005275264382362366,0.0018659234046936035
1772514974303835600,10.458835693359376,0.016501426696777344,-0.00040534138679504395,-0.007669329643249512
1772514974313887700,10.4688876953125,-0.0026006698608398438,0.013807475566864014,-0.007626473903656006
1772514974323935000,10.47893505859375,-0.007274627685546875,0.004132881760597229,0.01144939661026001
1772514974333971700,10.4889716796875,-0.0024394989013671875,-0.005387261509895325,-0.012373387813568115
1772514974344018000,10.499017822265625,0.0023107528686523438,-0.000515475869178772,-0.007444858551025391
1772514974354075400,10.509075439453126,0.00228118896484375,0.009077757596969604,-0.007409930229187012
1772514974364123000,10.519122802734374,-0.0024576187133789062,0.00429128110408783,0.011460959911346436
1772514974374168000,10.52916796875,-0.016546249389648438,0.004091814160346985,-0.012259364128112793
1772514974384215300,10.53921533203125,-0.011556625366210938,0.013420343399047852,0.006694376468658447
1772514974394259500,10.549259521484375,0.0074634552001953125,-0.0008557140827178955,0.006697177886962891
1772514974404306400,10.559306396484375,0.002628326416015625,-0.005577310919761658,0.016016483306884766
1772514974414357800,10.569357666015625,0.0167083740234375,0.00860731303691864,0.001635432243347168
1772514974424405000,10.579405029296876,0.011713027954101562,0.0037348121404647827,0.0017246603965759277
1772514974434444300,10.5894443359375,0.011508941650390625,-0.0057718753814697266,0.0065187811851501465
1772514974444490800,10.59949072265625,0.011321067810058594,-0.0011018812656402588,-0.0030961036682128906
1772514974454542600,10.60954248046875,0.001720428466796875,0.0035977810621261597,0.0015770792961120605
1772514974464589800,10.61958984375,-0.017148971557617188,0.017730191349983215,0.020497500896453857
1772514974474620200,10.6296201171875,-0.007452964782714844,0.0033822059631347656,-0.0032728910446166992
1772514974484665600,10.63966552734375,-0.0026216506958007812,-0.006118610501289368,-0.007913291454315186
1772514974494731000,10.64973095703125,-0.00728607177734375,0.003171473741531372,0.0015486478805541992
1772514974504778500,10.659778564453125,-0.01658344268798828,-0.0016172528266906738,-0.007880628108978271
1772514974514829300,10.669829345703125,-0.0021800994873046875,-0.0015031993389129639,-0.007731497287750244
1772514974524877000,10.679876953125,0.0025653839111328125,0.0032970309257507324,0.015951991081237793
1772514974534920000,10.689919921875,-0.0021877288818359375,0.012631997466087341,-0.007843196392059326
1772514974544967200,10.69996728515625,0.0025587081909179688,-0.0016309022903442383,-0.01711595058441162
1772514974555009300,10.71000927734375,-0.016312599182128906,-0.020465359091758728,-0.00750046968460083
1772514974565056000,10.720055908203125,0.0027894973754882812,-0.006126463413238525,-0.002653181552886963
1772514974575107300,10.730107421875,0.026284217834472656,-0.0013430416584014893,0.00211334228515625
1772514974585154600,10.740154541015626,0.002315521240234375,0.012777835130691528,-0.016943931579589844
1772514974595200000,10.750199951171876,-0.00714874267578125,0.012537598609924316,0.0022872090339660645
1772514974605247000,10.7602470703125,0.0023889541625976562,-0.020564928650856018,-0.002447843551635742
1772514974615296800,10.770296875,0.0023565292358398438,0.00810280442237854,-0.0024940967559814453
1772514974625344000,10.780343994140624,0.0023088455200195312,0.0032318830490112305,0.011787652969360352
1772514974635389400,10.790389404296874,-0.01656341552734375,-0.0014571845531463623,0.021022021770477295
1772514974645436400,10.8004365234375,-0.011587142944335938,0.012665614485740662,-0.002756953239440918
1772514974655477200,10.810477294921874,-0.0019712448120117188,-0.01582428812980652,0.0019106864929199219
1772514974665523700,10.820523681640625,0.007479667663574219,-0.0107717365026474,-0.007522642612457275
1772514974675616500,10.830616455078125,-0.0020608901977539062,-0.001101270318031311,-0.007383465766906738
1772514974685667600,10.84066748046875,0.0026731491088867188,-0.010534211993217468,-0.011856615543365479
1772514974695672600,10.850672607421876,0.007328987121582031,0.013157159090042114,0.007289230823516846
1772514974705719000,10.860718994140624,0.0024995803833007812,-0.0011076778173446655,0.011892080307006836
1772514974715767000,10.87076708984375,-0.011672019958496094,-0.015342965722084045,-0.021252572536468506
1772514974725813800,10.880813720703125,-0.0020704269409179688,-0.010506615042686462,-0.011366844177246094
1772514974735858000,10.89085791015625,0.0026731491088867188,0.0038676708936691284,0.002962052822113037
1772514974745904400,10.900904296875,-0.0020837783813476562,-0.01515229046344757,0.0029283761978149414
1772514974755955700,10.910955810546875,0.0073642730712890625,0.01793237030506134,-0.00652390718460083
1772514974766002700,10.921002685546876,0.011943817138671875,-0.0011274665594100952,-0.0015922188758850098
1772514974776048600,10.931048583984374,0.007029533386230469,0.0036733299493789673,-0.0061599016189575195
1772514974786095600,10.941095703125,0.006913185119628906,0.008394107222557068,-0.006043493747711182
1772514974796139300,10.95113916015625,0.006791114807128906,-0.01992395520210266,0.013005971908569336
1772514974806185700,10.961185791015625,0.0019674301147460938,-0.0007779896259307861,0.0033878087997436523
1772514974816237600,10.971237548828125,-0.012189865112304688,0.013441026210784912,0.0033470988273620605
1772514974826284500,10.981284423828125,-0.0025758743286132812,-0.019662931561470032,0.017533540725708008
1772514974836330800,10.991330810546875,-0.0025348663330078125,-0.005236715078353882,0.007837831974029541
1772514974846377700,11.001377685546874,-0.007195472717285156,-0.009885311126708984,-0.030048489570617676
1772514974856424400,11.011424560546875,-0.007069587707519531,-0.00033064186573028564,-0.015508890151977539
1772514974866471400,11.021471435546875,0.002468109130859375,-0.0004530996084213257,-0.0012115836143493652
1772514974876511500,11.031511474609376,0.0024328231811523438,0.013659775257110596,0.008140921592712402
1772514974886557700,11.0415576171875,-0.016439437866210938,-0.005221366882324219,0.02685534954071045
1772514974896615200,11.051615234375,0.0026674270629882812,-0.00987023115158081,-0.006538689136505127
1772514974906662400,11.061662353515626,0.002620697021484375,0.004385963082313538,-0.0017094612121582031
1772514974916729900,11.071729736328125,-0.011562347412109375,0.009088188409805298,0.0032410621643066406
1772514974926779100,11.081779052734374,-0.00666046142578125,0.004301548004150391,-0.0015078186988830566
1772514974936801500,11.091801513671875,0.0075817108154296875,0.004195839166641235,-0.0015715360641479492
1772514974946848000,11.101847900390625,0.007457733154296875,-0.0007106363773345947,0.007784843444824219
1772514974956907300,11.1119072265625,-0.006793975830078125,-0.019560471177101135,0.002960205078125
1772514974966955300,11.121955322265626,-0.02080535888671875,-0.005028456449508667,-0.011199116706848145
1772514974976987600,11.131987548828125,0.0077915191650390625,-0.014382272958755493,-0.001579582691192627
1772514974987033900,11.142033935546875,-0.0017576217651367188,0.01408851146697998,-0.00624614953994751
1772514974997082000,11.15208203125,0.0029764175415039062,-0.0003932565450668335,0.003290891647338867
1772514975007128800,11.16212890625,-0.001773834228515625,-0.009723678231239319,-0.015683233737945557
1772514975017173000,11.172173095703124,0.007676124572753906,0.004745006561279297,0.003428220748901367
1772514975027219200,11.18221923828125,0.007546424865722656,0.004638656973838806,0.008093416690826416
1772514975037270000,11.19227001953125,-0.01612567901611328,0.02798311412334442,0.00797426700592041
1772514975047317000,11.20231689453125,-0.006432533264160156,0.013464361429214478,0.003045797348022461
1772514975057376800,11.212376708984374,-0.0016202926635742188,-0.005426928400993347,-0.01101827621459961
1772514975067424800,11.2224248046875,0.012530326843261719,-0.0006483793258666992,-0.001401662826538086
1772514975077472500,11.232472412109376,0.012319564819335938,0.004043743014335632,-0.01078176498413086
1772514975087520500,11.2425205078125,0.0026950836181640625,-0.0007595270872116089,0.003537416458129883
1772514975097542000,11.2525419921875,-0.0020465850830078125,-0.000774085521697998,0.01741701364517212
1772514975107587000,11.262587158203125,0.0027017593383789062,-0.014921039342880249,0.0123291015625
1772514975117645300,11.272645263671874,0.00266265869140625,0.004127874970436096,0.007325887680053711
1772514975127692000,11.282692138671875,0.0026187896728515625,0.004125654697418213,-0.01161891222000122
1772514975137739500,11.292739501953125,-0.011559486389160156,-0.0006926059722900391,0.002810835838317871
1772514975147786200,11.3027861328125,-0.0019435882568359375,0.0039934515953063965,-0.0020336508750915527
1772514975157834500,11.31283447265625,-0.006621360778808594,0.013323605060577393,0.002724587917327881
1772514975167881200,11.322881103515625,-0.0018129348754882812,0.0035564005374908447,0.002793550491333008
1772514975177895200,11.332895263671874,-0.0017747879028320312,-0.015264078974723816,-0.0161740779876709
1772514975187938800,11.342938720703126,-0.0064640045166015625,-0.005720406770706177,0.007752776145935059
1772514975198022400,11.3530224609375,-0.011060714721679688,0.008372291922569275,-0.001880943775177002
1772514975208070000,11.36306982421875,-0.010862350463867188,-0.005826428532600403,0.012086451053619385
1772514975218117600,11.37311767578125,-0.015391349792480469,0.02720355987548828,0.016607344150543213
1772514975228165000,11.3831650390625,0.017816543579101562,0.00788852572441101,-0.007098078727722168
1772514975238210300,11.393210205078125,0.008100509643554688,-0.006395995616912842,0.0071596503257751465
1772514975248257500,11.403257568359376,0.0032548904418945312,0.0030936896800994873,0.016469180583953857
1772514975258311700,11.413311767578126,0.007909774780273438,-0.025142818689346313,-0.002628028392791748
1772514975268359700,11.423359619140625,-0.0016431808471679688,-0.006010532379150391,-0.0119856595993042
1772514975278414000,11.4334140625,0.012511253356933594,-0.005823254585266113,-0.002350926399230957
1772514975288462600,11.443462646484376,0.02172565460205078,-0.0057534873485565186,0.007018387317657471
1772514975298489900,11.45348974609375,-0.0021753311157226562,0.013055860996246338,0.011525273323059082
1772514975308536300,11.463536376953124,-0.0115509033203125,-0.015440553426742554,0.0018290281295776367
1772514975318582000,11.47358203125,0.0074672698974609375,-0.0010847002267837524,-0.002795696258544922
1772514975328628200,11.483628173828125,-0.006781578063964844,0.013132572174072266,0.0019732117652893066
1772514975338683000,11.493682861328125,-0.016084671020507812,0.00356997549533844,-0.0027545690536499023
1772514975348729900,11.503729736328125,0.012433052062988281,-0.010628923773765564,-0.007399499416351318
1772514975358772000,11.51377197265625,0.021640777587890625,0.008348509669303894,0.016278386116027832
1772514975368818700,11.523818603515625,0.011850357055664062,0.007973894476890564,0.011410772800445557
1772514975378869200,11.533869140625,-0.0071868896484375,-0.006499871611595154,0.0018211603164672852
1772514975388916200,11.543916259765625,-0.011784553527832031,-0.015842825174331665,0.011320292949676514
1772514975398961400,11.55396142578125,-0.0021724700927734375,0.0032351315021514893,0.0064386725425720215
1772514975409008400,11.56400830078125,0.016694068908691406,-0.0016553401947021484,0.001636505126953125
1772514975419051000,11.574051025390625,-0.011852264404296875,0.0029529333114624023,0.00182420015335083
1772514975429097500,11.584097412109376,-0.006954193115234375,0.02171081304550171,0.006616711616516113
1772514975439146800,11.594146728515625,0.011992454528808594,0.007095202803611755,0.02064591646194458
1772514975449193500,11.604193359375,0.01178741455078125,0.006748303771018982,0.010898351669311523
1772514975459244800,11.614244873046875,0.016295433044433594,0.0065009742975234985,-0.0033974051475524902
1772514975469291800,11.624291748046875,-0.0028123855590820312,-0.0030586719512939453,-0.008037686347961426
1772514975479338200,11.634338134765626,0.0019502639770507812,0.0064897239208221436,0.0014284849166870117
1772514975489385500,11.644385498046875,-0.012198448181152344,0.006555661559104919,0.02015209197998047
1772514975499430100,11.65443017578125,-0.01669788360595703,-0.017123833298683167,-0.0038137435913085938
1772514975509477000,11.66447705078125,-0.011696815490722656,0.006777942180633545,-0.018063604831695557
1772514975519520300,11.674520263671875,-0.006787300109863281,0.006637707352638245,0.0056934356689453125
1772514975529567000,11.68456689453125,0.016874313354492188,-0.012334555387496948,0.005511581897735596
1772514975539620400,11.694620361328125,0.021310806274414062,-0.011954769492149353,0.0006241202354431152
1772514975549667300,11.704667236328126,0.011531829833984375,0.007152259349822998,0.005436718463897705
1772514975559711200,11.714711181640626,0.0066318511962890625,-0.01643650233745575,-0.004057407379150391
1772514975569758200,11.72475830078125,0.006522178649902344,0.016877830028533936,-0.013391256332397461
1772514975579809000,11.73480908203125,0.006419181823730469,0.002443477511405945,0.014996469020843506
1772514975589856500,11.7448564453125,0.0015954971313476562,-0.01646573841571808,0.0007331371307373047
1772514975599904000,11.754904052734375,0.01568603515625,-0.002099663019180298,-0.008583903312683105
1772514975609951200,11.764951171875,0.015422821044921875,0.007318392395973206,0.000988006591796875
1772514975619993600,11.77499365234375,-0.008385658264160156,-0.0022412091493606567,0.010505080223083496
1772514975630040600,11.78504052734375,-0.008244514465332031,0.007293581962585449,0.0009285211563110352
1772514975640089000,11.795089111328124,0.001308441162109375,-0.0069810450077056885,-0.01790761947631836
1772514975650136000,11.805135986328125,-0.00814056396484375,0.0024245083332061768,0.0013396143913269043
1772514975660182300,11.815182373046875,0.0014104843139648438,0.0023499876260757446,0.010746121406555176
1772514975670229200,11.825229248046876,-0.003330230712890625,0.011693879961967468,0.010679364204406738
1772514975680274700,11.835274658203126,0.006134033203125,-0.012064412236213684,-0.008216679096221924
1772514975690321400,11.8453212890625,-0.0033941268920898438,-0.01659238338470459,-0.012671947479248047
1772514975700375800,11.855375732421875,-0.0033464431762695312,-0.0022173672914505005,0.02061384916305542
1772514975710423600,11.865423583984375,-0.01741790771484375,-0.01162487268447876,0.010866820812225342
1772514975720495900,11.875495849609376,0.00640869140625,0.0027682483196258545,0.0013832449913024902
1772514975730546000,11.8855458984375,-0.012538909912109375,0.0027955472469329834,-0.007942557334899902
1772514975740559000,11.89555908203125,-0.0123291015625,-0.016019046306610107,-0.0030899643898010254
1772514975750605300,11.905605224609374,-0.00270843505859375,-0.00636214017868042,0.0016838312149047852
1772514975760652800,11.91565283203125,-0.012088775634765625,-0.0015747994184494019,-0.00764697790145874
1772514975770699000,11.925698974609375,0.0022363662719726562,0.007841363549232483,-0.012214422225952148
1772514975780757500,11.935757568359374,0.006913185119628906,-0.0017406493425369263,0.006734371185302734
1772514975790805200,11.94580517578125,0.0020952224731445312,-0.025281891226768494,0.0018265247344970703
1772514975800823300,11.9558232421875,0.016191482543945312,-0.006053343415260315,0.0017093420028686523
1772514975810867700,11.96586767578125,-0.0076141357421875,-0.01529623568058014,-0.007823288440704346
1772514975820934700,11.9759345703125,0.011343002319335938,0.013082027435302734,-0.002970576286315918
