time,seconds_elapsed,z,y,x
1772514963844924700,-0.000075439453125,-0.00452724052593112,-0.012383334338665009,-0.0037283156998455524
1772514963854971400,0.009971435546875,-0.0034620072692632675,-0.005991935729980469,0.0005326165119186044
1772514963865019100,0.02001904296875,-0.00452724052593112,0.0014646954368799925,0.0005326165119186044
1772514963875065900,0.03006591796875,-0.005592473316937685,-0.005991935729980469,-0.0005326165119186044
1772514963885113000,0.040113037109375,-0.0034620072692632675,0.00359516148455441,-0.0026630824431777
1772514963895160000,0.05016015625,-0.0023967742454260588,0.0014646954368799925,-0.0005326165119186044
1772514963905207600,0.06020751953125,-0.0002663082559593022,-0.0027962366584688425,-0.0015978495357558131
1772514963915254500,0.070254638671875,-0.00133154122158885,0.0003994623839389533,-0.0005326165119186044
1772514963925302500,0.080302490234375,-0.0023967742454260588,0.0003994623839389533,-0.0015978495357558131
1772514963935349800,0.090349853515625,-0.0034620072692632675,-0.0017310036346316338,-0.0005326165119186044
1772514963945391000,0.10039111328125,-0.0023967742454260588,0.0003994623839389533,0.0005326165119186044
1772514963955437600,0.1104375,-0.0023967742454260588,-0.0017310036346316338,-0.0015978495357558131
1772514963965488400,0.12048828125,-0.0023967742454260588,-0.0017310036346316338,-0.0005326165119186044
1772514964005627000,0.160626953125,-0.00133154122158885,0.0003994623839389533,0.0005326165119186044
1772514964035788000,0.1907880859375,-0.00133154122158885,0.0003994623839389533,-0.0005326165119186044
1772514964055877400,0.21087744140625,-0.00133154122158885,0.00359516148455441,-0.0015978495357558131
1772514964075971000,0.23097119140625,-0.0002663082559593022,0.0025299284607172012,0.0015978495357558131
1772514964086018300,0.241018310546875,0.0007989247678779066,0.004660394508391619,0.0015978495357558131
1772514964096052700,0.251052734375,-0.00133154122158885,0.00359516148455441,-0.0005326165119186044
1772514964106082300,0.261082275390625,-0.0002663082559593022,0.005725627299398184,0.0005326165119186044
1772514964126176000,0.281176025390625,0.0018641578499227762,0.007856093347072601,0.0005326165119186044
1772514964136263700,0.291263671875,0.0007989247678779066,0.008788172155618668,-0.0005326165119186044
1772514964146313700,0.301313720703125,0.0007989247678779066,0.006790860556066036,-0.0015978495357558131
1772514964156352500,0.3113525390625,-0.0002663082559593022,0.004660394508391619,-0.0005326165119186044
1772514964166401500,0.321401611328125,0.0007989247678779066,0.006790860556066036,0.0015978495357558131
1772514964176450000,0.331449951171875,0.0007989247678779066,0.005725627299398184,0.0005326165119186044
1772514964186498800,0.341498779296875,-0.0023967742454260588,0.005725627299398184,0.0005326165119186044
1772514964196543500,0.35154345703125,-0.00133154122158885,-0.000665770610794425,-0.0026630824431777
1772514964206592000,0.361592041015625,-0.0002663082559593022,0.008788172155618668,0.0015978495357558131
1772514964216637200,0.37163720703125,-0.00133154122158885,0.0014646954368799925,0.0005326165119186044
1772514964226685200,0.381685302734375,-0.00133154122158885,0.0025299284607172012,0.0015978495357558131
1772514964236730400,0.39173046875,-0.00133154122158885,0.004660394508391619,-0.0005326165119186044
1772514964246778000,0.401778076171875,-0.00133154122158885,0.0014646954368799925,0.0005326165119186044
1772514964256826600,0.41182666015625,-0.00133154122158885,0.004660394508391619,0.0005326165119186044
1772514964266874400,0.421874267578125,-0.00133154122158885,0.0025299284607172012,0.0005326165119186044
1772514964276951300,0.431951416015625,-0.00133154122158885,0.0025299284607172012,-0.0015978495357558131
1772514964287002000,0.442002197265625,-0.0023967742454260588,0.006790860556066036,0.0015978495357558131
1772514964297022200,0.452022216796875,-0.00133154122158885,0.0014646954368799925,0.0005326165119186044
1772514964307070200,0.4620703125,-0.0002663082559593022,0.0003994623839389533,-0.0005326165119186044
1772514964317132300,0.47213232421875,-0.00133154122158885,0.00359516148455441,-0.0005326165119186044
1772514964327181600,0.482181640625,-0.00133154122158885,0.0025299284607172012,0.0015978495357558131
1772514964337227800,0.492227783203125,-0.00133154122158885,0.0025299284607172012,0.0005326165119186044
1772514964347276800,0.50227685546875,-0.00133154122158885,0.0014646954368799925,0.0005326165119186044
1772514964357323000,0.512322998046875,-0.00133154122158885,0.0025299284607172012,0.0005326165119186044
1772514964367371500,0.52237158203125,-0.0002663082559593022,0.0025299284607172012,0.0015978495357558131
1772514964377416700,0.532416748046875,-0.00133154122158885,0.0003994623839389533,-0.0005326165119186044
1772514964387465000,0.54246484375,-0.00133154122158885,0.0003994623839389533,0.0005326165119186044
1772514964397510000,0.552510009765625,-0.0023967742454260588,0.0025299284607172012,0.0005326165119186044
1772514964407557600,0.5625576171875,-0.00133154122158885,0.0025299284607172012,0.0005326165119186044
1772514964417603000,0.57260302734375,-0.0023967742454260588,0.0014646954368799925,-0.0005326165119186044
1772514964427650800,0.58265087890625,-0.00133154122158885,0.0014646954368799925,0.0005326165119186044
1772514964437699600,0.592699462890625,-0.00133154122158885,0.0025299284607172012,-0.0005326165119186044
1772514964447747300,0.602747314453125,-0.0002663082559593022,0.0025299284607172012,-0.0005326165119186044
1772514964457785300,0.612785400390625,-0.00133154122158885,0.0014646954368799925,0.0015978495357558131
1772514964467832000,0.62283203125,-0.00133154122158885,0.0025299284607172012,0.0015978495357558131
1772514964477887000,0.632886962890625,-0.00133154122158885,0.00359516148455441,-0.0005326165119186044
1772514964487934700,0.642934814453125,-0.00133154122158885,0.0025299284607172012,0.0005326165119186044
1772514964497976300,0.652976318359375,-0.00133154122158885,0.0014646954368799925,0.0005326165119186044
1772514964508023300,0.663023193359375,-0.00133154122158885,0.0025299284607172012,-0.0005326165119186044
1772514964518070500,0.673070556640625,-0.00133154122158885,0.00359516148455441,0.0005326165119186044
1772514964528117800,0.68311767578125,-0.00133154122158885,0.0025299284607172012,0.0005326165119186044
1772514964538168600,0.69316845703125,-0.00133154122158885,0.00359516148455441,0.0015978495357558131
1772514964548216000,0.703216064453125,-0.0023967742454260588,0.0014646954368799925,0.0005326165119186044
1772514964558262300,0.71326220703125,-0.00133154122158885,0.0025299284607172012,-0.0005326165119186044
1772514964568309500,0.7233095703125,-0.0023967742454260588,0.0025299284607172012,0.0005326165119186044
1772514964578350600,0.7333505859375,-0.00133154122158885,0.00359516148455441,-0.0005326165119186044
1772514964588397300,0.743397216796875,-0.0023967742454260588,0.0025299284607172012,0.0005326165119186044
1772514964598451000,0.753450927734375,-0.00133154122158885,0.0025299284607172012,-0.0005326165119186044
1772514964608498200,0.763498291015625,-0.0023967742454260588,0.0025299284607172012,0.0005326165119186044
1772514964618543000,0.773543212890625,-0.0023967742454260588,0.0003994623839389533,0.0005326165119186044
1772514964628590300,0.78359033203125,-0.0002663082559593022,0.0025299284607172012,-0.0005326165119186044
1772514964638636800,0.79363671875,-0.00133154122158885,0.0025299284607172012,-0.0005326165119186044
1772514964648684000,0.80368408203125,-0.0023967742454260588,0.0025299284607172012,-0.0005326165119186044
1772514964658730000,0.81372998046875,-0.0023967742454260588,0.00359516148455441,-0.0015978495357558131
1772514964668777000,0.82377685546875,-0.00133154122158885,0.0025299284607172012,-0.0005326165119186044
1772514964678846000,0.833845947265625,-0.0023967742454260588,0.0025299284607172012,0.0005326165119186044
1772514964688895200,0.843895263671875,-0.0023967742454260588,0.0025299284607172012,0.0005326165119186044
1772514964698919000,0.8539189453125,-0.0034620072692632675,0.0025299284607172012,0.0005326165119186044
1772514964708965400,0.86396533203125,-0.0034620072692632675,0.0025299284607172012,-0.0005326165119186044
1772514964718995500,0.873995361328125,-0.00133154122158885,0.0014646954368799925,0.0005326165119186044
1772514964729040400,0.884040283203125,0.0007989247678779066,0.0014646954368799925,-0.0005326165119186044
1772514964739109600,0.894109619140625,-0.0002663082559593022,0.0025299284607172012,0.0005326165119186044
1772514964749156900,0.904156982421875,-0.0002663082559593022,0.0025299284607172012,-0.0005326165119186044
1772514964759200800,0.91420068359375,-0.00133154122158885,0.0014646954368799925,0.0005326165119186044
1772514964769247700,0.924247802734375,-0.0023967742454260588,0.0025299284607172012,0.0005326165119186044
1772514964779295000,0.934294921875,-0.00133154122158885,0.0014646954368799925,0.0005326165119186044
1772514964789342200,0.94434228515625,-0.00133154122158885,0.0014646954368799925,-0.0005326165119186044
1772514964799386600,0.95438671875,-0.00133154122158885,0.0025299284607172012,0.0005326165119186044
1772514964809433300,0.964433349609375,-0.00133154122158885,0.00359516148455441,0.0015978495357558131
1772514964819483600,0.974483642578125,-0.00133154122158885,0.0025299284607172012,0.0015978495357558131
1772514964829531000,0.98453076171875,-0.00133154122158885,0.0014646954368799925,-0.0015978495357558131
1772514964839575000,0.994574951171875,-0.00133154122158885,0.00359516148455441,-0.0005326165119186044
1772514964849621800,1.004621826171875,-0.00133154122158885,0.0025299284607172012,0.0005326165119186044
1772514964859669000,1.0146689453125,-0.00133154122158885,0.00359516148455441,0.0005326165119186044
1772514964869716000,1.024716064453125,-0.00133154122158885,0.00359516148455441,0.0005326165119186044
1772514964879761700,1.03476171875,-0.00133154122158885,0.00359516148455441,0.0015978495357558131
1772514964889808400,1.044808349609375,-0.0002663082559593022,0.0003994623839389533,-0.0005326165119186044
1772514964899858400,1.0548583984375,-0.00133154122158885,0.0014646954368799925,0.0015978495357558131
1772514964909905700,1.06490576171875,-0.00133154122158885,0.0014646954368799925,0.0005326165119186044
1772514964919957500,1.07495751953125,-0.00133154122158885,0.0014646954368799925,0.0005326165119186044
1772514964930005200,1.085005126953125,-0.0002663082559593022,0.00359516148455441,-0.0005326165119186044
1772514964940036600,1.09503662109375,-0.0002663082559593022,0.0025299284607172012,0.0015978495357558131
1772514964950082600,1.10508251953125,-0.00133154122158885,0.0025299284607172012,-0.0005326165119186044
1772514964960140800,1.115140869140625,-0.0023967742454260588,0.0003994623839389533,0.0005326165119186044
1772514964970188000,1.12518798828125,-0.0002663082559593022,0.0014646954368799925,-0.0005326165119186044
1772514964980227300,1.135227294921875,-0.0023967742454260588,0.0025299284607172012,-0.0005326165119186044
1772514964990273800,1.145273681640625,-0.0023967742454260588,0.0025299284607172012,0.0015978495357558131
1772514965000312000,1.15531201171875,-0.0034620072692632675,0.00359516148455441,0.0026630824431777
1772514965010357500,1.165357421875,-0.0023967742454260588,0.0025299284607172012,-0.0005326165119186044
1772514965020425000,1.175425048828125,-0.0002663082559593022,0.00359516148455441,-0.0015978495357558131
1772514965030472700,1.18547265625,-0.00133154122158885,0.0025299284607172012,0.0005326165119186044
1772514965040515300,1.195515380859375,-0.0034620072692632675,0.00359516148455441,0.0015978495357558131
1772514965050562600,1.2055625,-0.00133154122158885,0.00359516148455441,-0.0005326165119186044
1772514965060605400,1.21560546875,-0.0023967742454260588,0.00359516148455441,-0.0005326165119186044
1772514965070652200,1.225652099609375,-0.00133154122158885,0.0025299284607172012,0.0015978495357558131
1772514965080702500,1.235702392578125,-0.00133154122158885,0.0025299284607172012,0.0005326165119186044
1772514965090749400,1.24574951171875,-0.00133154122158885,0.00359516148455441,0.0015978495357558131
1772514965100797200,1.255797119140625,-0.00133154122158885,0.004660394508391619,0.0005326165119186044
1772514965110844400,1.265844482421875,-0.00133154122158885,0.0003994623839389533,0.0005326165119186044
1772514965120897300,1.275897216796875,-0.00133154122158885,0.0014646954368799925,-0.0005326165119186044
1772514965130945000,1.285945068359375,-0.00133154122158885,0.0025299284607172012,0.0005326165119186044
1772514965140986600,1.295986572265625,-0.0002663082559593022,0.0025299284607172012,0.0015978495357558131
1772514965151033900,1.306033935546875,-0.00133154122158885,0.0014646954368799925,0.0015978495357558131
1772514965161077800,1.316077880859375,-0.0002663082559593022,0.0014646954368799925,-0.0005326165119186044
1772514965171124500,1.32612451171875,-0.0002663082559593022,0.0014646954368799925,-0.0005326165119186044
1772514965181174000,1.336174072265625,-0.0023967742454260588,0.0003994623839389533,0.0015978495357558131
1772514965191221000,1.346220947265625,-0.0002663082559593022,0.0014646954368799925,0.0005326165119186044
1772514965201269200,1.356269287109375,-0.0002663082559593022,0.0014646954368799925,0.0005326165119186044
1772514965211316200,1.366316162109375,-0.0002663082559593022,0.0014646954368799925,0.0005326165119186044
1772514965221359400,1.376359375,-0.00133154122158885,0.0025299284607172012,0.0015978495357558131
1772514965231406300,1.38640625,-0.00133154122158885,0.0025299284607172012,0.0015978495357558131
1772514965241457200,1.39645703125,-0.00133154122158885,0.00359516148455441,0.0015978495357558131
1772514965251504000,1.406504150390625,-0.00133154122158885,0.0025299284607172012,0.0005326165119186044
1772514965261550600,1.416550537109375,-0.00133154122158885,0.0014646954368799925,0.0005326165119186044
1772514965271597600,1.42659765625,-0.00133154122158885,0.0014646954368799925,0.0005326165119186044
1772514965281615600,1.43661572265625,-0.0023967742454260588,0.0014646954368799925,-0.0005326165119186044
1772514965291659800,1.44665966796875,-0.0023967742454260588,0.0014646954368799925,0.0005326165119186044
1772514965301736000,1.45673583984375,-0.00133154122158885,0.00359516148455441,0.0005326165119186044
1772514965311783200,1.466783203125,-0.0002663082559593022,0.00359516148455441,-0.0005326165119186044
1772514965321830700,1.47683056640625,-0.0023967742454260588,0.0025299284607172012,-0.0005326165119186044
1772514965331878100,1.486878173828125,-0.0023967742454260588,0.0025299284607172012,-0.0005326165119186044
1772514965341950500,1.496950439453125,-0.00133154122158885,0.00359516148455441,0.0005326165119186044
1772514965352000500,1.50700048828125,-0.0002663082559593022,0.0014646954368799925,0.0005326165119186044
1772514965362020000,1.51702001953125,-0.00133154122158885,0.0014646954368799925,-0.0005326165119186044
1772514965372066800,1.52706689453125,-0.00133154122158885,0.0025299284607172012,0.0015978495357558131
1772514965382111200,1.537111328125,-0.0023967742454260588,0.0025299284607172012,0.0005326165119186044
1772514965392158000,1.547157958984375,-0.0023967742454260588,0.0025299284607172012,0.0015978495357558131
1772514965402206500,1.55720654296875,-0.00133154122158885,0.00359516148455441,0.0015978495357558131
1772514965412253200,1.567253173828125,-0.0002663082559593022,0.0014646954368799925,0.0015978495357558131
1772514965422294800,1.577294677734375,-0.00133154122158885,0.0025299284607172012,0.0005326165119186044
1772514965432341000,1.587341064453125,-0.00133154122158885,0.0014646954368799925,-0.0005326165119186044
1772514965442393900,1.597393798828125,-0.0023967742454260588,0.0025299284607172012,0.0005326165119186044
1772514965452440800,1.60744091796875,-0.00133154122158885,0.0025299284607172012,0.0005326165119186044
1772514965462492000,1.617491943359375,-0.0002663082559593022,0.0025299284607172012,-0.0005326165119186044
1772514965472539100,1.6275390625,-0.00133154122158885,0.0025299284607172012,-0.0005326165119186044
1772514965482582000,1.63758203125,-0.00133154122158885,0.00359516148455441,0.0005326165119186044
1772514965492628700,1.647628662109375,-0.0023967742454260588,0.0025299284607172012,0.0005326165119186044
1772514965502678300,1.65767822265625,-0.00133154122158885,0.0014646954368799925,0.0005326165119186044
1772514965512725500,1.6677255859375,-0.00133154122158885,0.0025299284607172012,0.0005326165119186044
1772514965522771500,1.677771484375,-0.00133154122158885,0.0025299284607172012,0.0005326165119186044
1772514965532818400,1.687818359375,-0.00133154122158885,0.0025299284607172012,0.0026630824431777
1772514965542883800,1.6978837890625,-0.0023967742454260588,0.0025299284607172012,0.0026630824431777
1772514965552932900,1.707932861328125,-0.0023967742454260588,0.0014646954368799925,-0.0005326165119186044
1772514965562959000,1.717958984375,-0.00133154122158885,0.0025299284607172012,0.0005326165119186044
1772514965573005800,1.728005859375,-0.00133154122158885,0.0014646954368799925,-0.0005326165119186044
1772514965583053000,1.738052978515625,-0.00133154122158885,0.0014646954368799925,-0.0015978495357558131
1772514965593099500,1.748099609375,-0.00133154122158885,0.0014646954368799925,0.0005326165119186044
1772514965603149600,1.758149658203125,-0.00133154122158885,0.0025299284607172012,-0.0015978495357558131
1772514965613196500,1.768196533203125,-0.00133154122158885,0.0014646954368799925,-0.0005326165119186044
1772514965623241200,1.7782412109375,-0.00133154122158885,0.00359516148455441,0.0005326165119186044
1772514965633288000,1.788287841796875,-0.00133154122158885,0.0025299284607172012,0.0015978495357558131
1772514965643332400,1.798332275390625,-0.00133154122158885,0.0025299284607172012,-0.0005326165119186044
1772514965653379000,1.808379150390625,-0.0002663082559593022,0.0025299284607172012,-0.0015978495357558131
1772514965663430400,1.818430419921875,-0.0002663082559593022,-0.000665770610794425,-0.0015978495357558131
1772514965673477400,1.828477294921875,-0.0002663082559593022,0.0025299284607172012,-0.0015978495357558131
1772514965683525400,1.838525390625,-0.0002663082559593022,0.0025299284607172012,0.0005326165119186044
1772514965693572400,1.848572265625,-0.00133154122158885,0.0025299284607172012,0.0005326165119186044
1772514965703620600,1.85862060546875,-0.00133154122158885,0.0014646954368799925,0.0015978495357558131
1772514965713667600,1.86866748046875,-0.00133154122158885,0.00359516148455441,-0.0005326165119186044
1772514965723709700,1.878709716796875,-0.00133154122158885,0.00359516148455441,0.0015978495357558131
1772514965733756400,1.88875634765625,-0.00133154122158885,0.0014646954368799925,0.0005326165119186044
1772514965743790000,1.8987900390625,-0.00133154122158885,0.0025299284607172012,0.0005326165119186044
1772514965753835500,1.90883544921875,-0.00133154122158885,0.0025299284607172012,0.0005326165119186044
1772514965763904000,1.918904052734375,-0.0023967742454260588,0.0025299284607172012,0.0015978495357558131
1772514965773951700,1.92895166015625,-0.00133154122158885,0.0025299284607172012,0.0005326165119186044
1772514965783993600,1.93899365234375,-0.0034620072692632675,0.00359516148455441,0.0005326165119186044
1772514965794040800,1.949040771484375,-0.00133154122158885,0.0025299284607172012,0.0005326165119186044
1772514965804086500,1.95908642578125,-0.00133154122158885,0.0014646954368799925,-0.0005326165119186044
1772514965814133800,1.9691337890625,-0.00133154122158885,0.0025299284607172012,-0.0005326165119186044
1772514965824181500,1.979181396484375,-0.0023967742454260588,0.0025299284607172012,-0.0005326165119186044
1772514965834228500,1.989228515625,-0.0023967742454260588,0.00359516148455441,0.0005326165119186044
1772514965844275700,1.999275634765625,-0.00133154122158885,0.0025299284607172012,0.0005326165119186044
1772514965854322700,2.00932275390625,-0.0002663082559593022,0.0025299284607172012,-0.0005326165119186044
1772514965864372700,2.019372802734375,-0.0023967742454260588,0.0025299284607172012,-0.0005326165119186044
1772514965874420000,2.029419921875,-0.0023967742454260588,0.0025299284607172012,-0.0005326165119186044
1772514965884461800,2.0394619140625,-0.00133154122158885,0.0025299284607172012,0.0005326165119186044
1772514965894508500,2.049508544921875,-0.00133154122158885,0.004660394508391619,0.0005326165119186044
1772514965904571100,2.059571044921875,-0.00133154122158885,0.00359516148455441,-0.0005326165119186044
1772514965914619600,2.06961962890625,-0.0034620072692632675,0.0025299284607172012,0.0005326165119186044
1772514965924649200,2.079649169921875,-0.0023967742454260588,0.0025299284607172012,0.0015978495357558131
1772514965934695700,2.08969580078125,-0.0023967742454260588,0.00359516148455441,0.0015978495357558131
1772514965944759300,2.09975927734375,-0.0023967742454260588,0.0025299284607172012,0.0005326165119186044
1772514965954807600,2.1098076171875,-0.00133154122158885,0.0014646954368799925,-0.0005326165119186044
1772514965964837600,2.119837646484375,-0.00133154122158885,0.0025299284607172012,0.0005326165119186044
1772514965974883800,2.1298837890625,-0.0023967742454260588,0.0014646954368799925,-0.0005326165119186044
1772514965984935400,2.139935302734375,-0.00133154122158885,0.0025299284607172012,-0.0005326165119186044
1772514965994982400,2.149982421875,-0.00133154122158885,0.0025299284607172012,0.0026630824431777
1772514966005028600,2.160028564453125,-0.0002663082559593022,0.0025299284607172012,0.0005326165119186044
1772514966015075300,2.170075439453125,-0.00133154122158885,0.0003994623839389533,0.0005326165119186044
1772514966025122600,2.18012255859375,-0.0002663082559593022,0.0014646954368799925,-0.0005326165119186044
1772514966035169500,2.19016943359375,-0.00133154122158885,0.0025299284607172012,0.0005326165119186044
1772514966045217000,2.200217041015625,-0.0023967742454260588,0.0025299284607172012,0.0005326165119186044
1772514966055264000,2.210263916015625,-0.0002663082559593022,0.0014646954368799925,-0.0005326165119186044
1772514966065311500,2.2203115234375,-0.00133154122158885,0.0003994623839389533,-0.0005326165119186044
1772514966075358500,2.2303583984375,-0.00133154122158885,0.0014646954368799925,0.0005326165119186044
1772514966085405400,2.240405517578125,-0.0002663082559593022,0.0025299284607172012,0.0015978495357558131
1772514966095452400,2.250452392578125,-0.0002663082559593022,0.0025299284607172012,0.0015978495357558131
1772514966105521200,2.260521240234375,-0.0002663082559593022,0.0014646954368799925,-0.0005326165119186044
1772514966115570400,2.2705703125,-0.0002663082559593022,0.00359516148455441,-0.0005326165119186044
1772514966125590800,2.2805908203125,-0.00133154122158885,0.004660394508391619,0.0005326165119186044
1772514966135637000,2.290636962890625,-0.0023967742454260588,0.0025299284607172012,0.0005326165119186044
1772514966145683200,2.30068310546875,-0.00133154122158885,0.0014646954368799925,-0.0005326165119186044
1772514966155729400,2.3107294921875,-0.0002663082559593022,0.0014646954368799925,-0.0005326165119186044
1772514966165772500,2.3207724609375,-0.0002663082559593022,0.0025299284607172012,0.0005326165119186044
1772514966175818500,2.330818603515625,-0.0002663082559593022,0.0014646954368799925,0.0005326165119186044
1772514966185875200,2.340875244140625,-0.0002663082559593022,0.0014646954368799925,-0.0005326165119186044
1772514966195922200,2.350922119140625,-0.00133154122158885,0.0025299284607172012,0.0005326165119186044
1772514966205969000,2.360968994140625,-0.00133154122158885,0.0025299284607172012,0.0005326165119186044
1772514966216016000,2.371015869140625,-0.00133154122158885,0.00359516148455441,-0.0005326165119186044
1772514966226061600,2.3810615234375,-0.0002663082559593022,0.0025299284607172012,-0.0005326165119186044
1772514966236108300,2.3911083984375,-0.00133154122158885,0.0014646954368799925,0.0015978495357558131
1772514966246159000,2.4011591796875,-0.00133154122158885,0.0025299284607172012,0.0005326165119186044
1772514966256206300,2.411206298828125,-0.00133154122158885,0.0025299284607172012,0.0005326165119186044
1772514966266249200,2.421249267578125,-0.00133154122158885,0.00359516148455441,0.0005326165119186044
1772514966276296200,2.431296142578125,-0.0023967742454260588,0.00359516148455441,-0.0005326165119186044
1772514966286342400,2.44134228515625,-0.00133154122158885,0.0025299284607172012,0.0005326165119186044
1772514966296389000,2.45138916015625,-0.00133154122158885,0.0025299284607172012,0.0005326165119186044
1772514966306438700,2.461438720703125,-0.0023967742454260588,0.00359516148455441,-0.0005326165119186044
1772514966316485600,2.471485595703125,-0.00133154122158885,0.00359516148455441,0.0015978495357558131
1772514966326532400,2.481532470703125,-0.00133154122158885,0.0003994623839389533,0.0015978495357558131
1772514966336579600,2.49157958984375,-0.0034620072692632675,0.0025299284607172012,-0.0005326165119186044
1772514966346624300,2.501624267578125,-0.0002663082559593022,0.0025299284607172012,-0.0005326165119186044
1772514966356671000,2.5116708984375,-0.0002663082559593022,0.0014646954368799925,0.0015978495357558131
1772514966366720300,2.52172021484375,-0.0023967742454260588,0.0025299284607172012,0.0005326165119186044
1772514966376767200,2.531767333984375,-0.0023967742454260588,0.00359516148455441,-0.0005326165119186044
1772514966386813400,2.5418134765625,-0.0023967742454260588,0.0025299284607172012,0.0005326165119186044
1772514966396860400,2.5518603515625,-0.0023967742454260588,0.0014646954368799925,0.0005326165119186044
1772514966406879500,2.56187939453125,-0.0023967742454260588,0.0003994623839389533,0.0005326165119186044
1772514966416923600,2.571923583984375,-0.00133154122158885,0.0014646954368799925,-0.0005326165119186044
1772514966427002400,2.58200244140625,-0.00133154122158885,0.0025299284607172012,0.0005326165119186044
1772514966437050000,2.592050048828125,-0.0023967742454260588,0.00359516148455441,0.0005326165119186044
1772514966447096300,2.602096435546875,-0.0002663082559593022,0.004660394508391619,-0.0005326165119186044
1772514966457143800,2.612143798828125,-0.0002663082559593022,0.0025299284607172012,-0.0005326165119186044
1772514966467184000,2.62218408203125,-0.0002663082559593022,0.004660394508391619,0.0005326165119186044
1772514966477230800,2.63223095703125,-0.0002663082559593022,0.00359516148455441,0.0015978495357558131
1772514966487282400,2.642282470703125,-0.00133154122158885,0.00359516148455441,0.0005326165119186044
1772514966497329700,2.65232958984375,-0.0023967742454260588,0.0025299284607172012,0.0005326165119186044
1772514966507370800,2.662370849609375,-0.0002663082559593022,0.0014646954368799925,-0.0015978495357558131
1772514966517417500,2.67241748046875,-0.00133154122158885,0.0014646954368799925,-0.0005326165119186044
1772514966527483000,2.68248291015625,-0.00133154122158885,0.0003994623839389533,0.0005326165119186044
1772514966537531400,2.692531494140625,-0.00133154122158885,0.0025299284607172012,0.0015978495357558131
1772514966547558700,2.70255859375,-0.0002663082559593022,0.0025299284607172012,0.0005326165119186044
1772514966557604900,2.71260498046875,-0.00133154122158885,0.0025299284607172012,-0.0005326165119186044
1772514966567658500,2.722658447265625,-0.0002663082559593022,0.0025299284607172012,0.0015978495357558131
1772514966577705700,2.732705810546875,-0.00133154122158885,0.0014646954368799925,0.0005326165119186044
1772514966587754200,2.742754150390625,-0.0002663082559593022,0.00359516148455441,0.0005326165119186044
1772514966597801500,2.752801513671875,-0.00133154122158885,0.0025299284607172012,0.0005326165119186044
1772514966607845000,2.76284521484375,-0.0023967742454260588,0.0014646954368799925,-0.0005326165119186044
1772514966617892000,2.77289208984375,-0.00133154122158885,0.0014646954368799925,0.0005326165119186044
1772514966627941600,2.782941650390625,-0.00133154122158885,0.0025299284607172012,0.0005326165119186044
1772514966637988900,2.79298876953125,-0.00133154122158885,0.0014646954368799925,0.0005326165119186044
1772514966648036900,2.803036865234375,-0.00133154122158885,0.0014646954368799925,-0.0005326165119186044
1772514966658084000,2.813083984375,-0.00133154122158885,0.0014646954368799925,0.0026630824431777
1772514966668131300,2.82313134765625,-0.00133154122158885,0.0014646954368799925,0.0005326165119186044
1772514966678178600,2.833178466796875,-0.0023967742454260588,0.00359516148455441,0.0005326165119186044
1772514966688225500,2.8432255859375,-0.0023967742454260588,0.0025299284607172012,-0.0005326165119186044
1772514966698272800,2.853272705078125,-0.00133154122158885,0.0014646954368799925,-0.0005326165119186044
1772514966708329500,2.86332958984375,-0.00133154122158885,0.0014646954368799925,0.0005326165119186044
1772514966718377500,2.87337744140625,-0.00133154122158885,0.0025299284607172012,-0.0005326165119186044
1772514966728413200,2.8834130859375,-0.00133154122158885,0.0025299284607172012,0.0005326165119186044
1772514966738460000,2.8934599609375,-0.0023967742454260588,0.0014646954368799925,-0.0015978495357558131
1772514966748505900,2.903505859375,-0.0002663082559593022,0.0025299284607172012,-0.0015978495357558131
1772514966758552600,2.913552490234375,-0.00133154122158885,0.0014646954368799925,0.0005326165119186044
1772514966768598500,2.9235986328125,-0.00133154122158885,0.0025299284607172012,0.0005326165119186044
1772514966778645200,2.933645263671875,-0.00133154122158885,0.00359516148455441,-0.0005326165119186044
1772514966788693200,2.943693359375,-0.00133154122158885,0.0014646954368799925,0.0005326165119186044
1772514966798740000,2.953739990234375,-0.00133154122158885,0.0014646954368799925,0.0005326165119186044
1772514966808759600,2.963759521484375,-0.0002663082559593022,0.0014646954368799925,0.0015978495357558131
1772514966818803700,2.9738037109375,-0.0023967742454260588,0.0014646954368799925,0.0005326165119186044
1772514966828880600,2.983880615234375,-0.0023967742454260588,0.00359516148455441,0.0015978495357558131
1772514966838928100,2.99392822265625,-0.0023967742454260588,0.0025299284607172012,0.0015978495357558131
1772514966848974800,3.003974853515625,-0.00133154122158885,0.0014646954368799925,0.0005326165119186044
1772514966859022300,3.014022216796875,-0.00133154122158885,0.0014646954368799925,-0.0005326165119186044
1772514966869068800,3.02406884765625,-0.0002663082559593022,0.0025299284607172012,0.0005326165119186044
1772514966879116000,3.034115966796875,-0.00133154122158885,0.00359516148455441,0.0005326165119186044
1772514966889162500,3.04416259765625,-0.00133154122158885,0.00359516148455441,-0.0005326165119186044
1772514966899209700,3.054209716796875,-0.00133154122158885,0.0025299284607172012,0.0005326165119186044
1772514966909258000,3.064258056640625,-0.00133154122158885,0.0014646954368799925,-0.0005326165119186044
1772514966919305200,3.07430517578125,-0.0002663082559593022,0.0014646954368799925,-0.0005326165119186044
1772514966929354000,3.08435400390625,-0.0002663082559593022,0.00359516148455441,0.0005326165119186044
1772514966939401500,3.0944013671875,-0.00133154122158885,0.0014646954368799925,0.0005326165119186044
1772514966949446000,3.10444580078125,-0.0023967742454260588,0.0025299284607172012,0.0005326165119186044
1772514966959493000,3.1144931640625,-0.00133154122158885,0.0025299284607172012,0.0005326165119186044
1772514966969540400,3.124540283203125,-0.00133154122158885,0.0025299284607172012,0.0015978495357558131
1772514966979587300,3.13458740234375,-0.00133154122158885,0.0014646954368799925,-0.0005326165119186044
1772514966989631000,3.144630859375,-0.00133154122158885,0.0003994623839389533,0.0005326165119186044
1772514966999677700,3.154677734375,-0.0002663082559593022,0.0003994623839389533,0.0005326165119186044
1772514967009741000,3.164740966796875,-0.0023967742454260588,0.0025299284607172012,-0.0005326165119186044
1772514967019789600,3.17478955078125,-0.0034620072692632675,0.0025299284607172012,0.0015978495357558131
1772514967029822700,3.18482275390625,-0.0023967742454260588,0.00359516148455441,0.0015978495357558131
1772514967039869700,3.19486962890625,-0.0002663082559593022,0.004660394508391619,0.0005326165119186044
1772514967049918500,3.20491845703125,-0.00133154122158885,0.00359516148455441,-0.0005326165119186044
1772514967059965400,3.21496533203125,-0.0002663082559593022,0.0025299284607172012,0.0015978495357558131
1772514967070010600,3.2250107421875,-0.00133154122158885,0.0025299284607172012,-0.0005326165119186044
1772514967080057600,3.2350576171875,-0.0023967742454260588,0.0014646954368799925,0.0005326165119186044
1772514967090104600,3.2451044921875,-0.00133154122158885,0.0014646954368799925,-0.0005326165119186044
1772514967100151300,3.2551513671875,-0.00133154122158885,0.0025299284607172012,0.0015978495357558131
1772514967110196000,3.265196044921875,-0.00133154122158885,0.0025299284607172012,0.0005326165119186044
1772514967120242700,3.27524267578125,-0.0023967742454260588,0.0025299284607172012,-0.0015978495357558131
1772514967130289000,3.285288818359375,-0.00133154122158885,0.0025299284607172012,-0.0015978495357558131
1772514967140335600,3.295335693359375,-0.0002663082559593022,0.0014646954368799925,-0.0015978495357558131
1772514967150387700,3.3053876953125,-0.0002663082559593022,0.00359516148455441,-0.0015978495357558131
1772514967160435000,3.31543505859375,-0.00133154122158885,0.0025299284607172012,0.0005326165119186044
1772514967170479000,3.32547900390625,-0.00133154122158885,0.0014646954368799925,0.0015978495357558131
1772514967180526000,3.335526123046875,-0.0023967742454260588,0.0014646954368799925,0.0005326165119186044
1772514967190572300,3.345572265625,-0.0023967742454260588,0.0014646954368799925,-0.0005326165119186044
1772514967200619300,3.355619384765625,-0.0002663082559593022,0.00359516148455441,-0.0005326165119186044
1772514967210674400,3.36567431640625,-0.0002663082559593022,0.00359516148455441,0.0005326165119186044
1772514967220722200,3.37572216796875,-0.0023967742454260588,0.0025299284607172012,-0.0005326165119186044
1772514967230750200,3.385750244140625,-0.00133154122158885,0.00359516148455441,-0.0005326165119186044
1772514967240796000,3.3957958984375,-0.00133154122158885,0.0025299284607172012,-0.0015978495357558131
1772514967250856400,3.4058564453125,-0.0002663082559593022,0.0025299284607172012,0.0015978495357558131
1772514967260903700,3.415903564453125,-0.0023967742454260588,0.00359516148455441,0.0005326165119186044
1772514967270950400,3.425950439453125,-0.0002663082559593022,0.0014646954368799925,-0.0005326165119186044
1772514967280997600,3.43599755859375,-0.00133154122158885,0.0014646954368799925,-0.0005326165119186044
1772514967291045600,3.446045654296875,-0.0023967742454260588,0.0025299284607172012,0.0005326165119186044
1772514967301092900,3.4560927734375,-0.0002663082559593022,0.0025299284607172012,-0.0005326165119186044
1772514967311121400,3.466121337890625,-0.0002663082559593022,0.0014646954368799925,0.0005326165119186044
1772514967321166600,3.47616650390625,-0.00133154122158885,0.0003994623839389533,0.0005326165119186044
1772514967331233500,3.486233642578125,-0.00133154122158885,0.00359516148455441,-0.0005326165119186044
1772514967341281000,3.496281005859375,-0.0002663082559593022,0.00359516148455441,0.0005326165119186044
1772514967351327500,3.506327392578125,-0.00133154122158885,0.0025299284607172012,0.0005326165119186044
1772514967361375000,3.516375,-0.0023967742454260588,0.00359516148455441,0.0005326165119186044
1772514967371420400,3.52642041015625,-0.00133154122158885,0.0014646954368799925,0.0015978495357558131
1772514967381467600,3.536467529296875,-0.0023967742454260588,0.0025299284607172012,-0.0005326165119186044
1772514967391510500,3.546510498046875,-0.0023967742454260588,0.0025299284607172012,0.0005326165119186044
1772514967401557200,3.55655712890625,-0.0002663082559593022,0.0014646954368799925,0.0005326165119186044
1772514967411619000,3.566619140625,-0.0002663082559593022,0.0014646954368799925,-0.0005326165119186044
1772514967421667600,3.57666748046875,-0.0023967742454260588,0.00359516148455441,-0.0005326165119186044
1772514967431700700,3.58670068359375,-0.00133154122158885,0.00359516148455441,0.0005326165119186044
1772514967441747500,3.59674755859375,-0.00133154122158885,0.0025299284607172012,0.0005326165119186044
1772514967451790800,3.606790771484375,-0.00133154122158885,0.0014646954368799925,0.0015978495357558131
1772514967461837300,3.61683740234375,-0.0002663082559593022,0.0014646954368799925,0.0005326165119186044
1772514967471892500,3.626892578125,-0.0002663082559593022,0.0003994623839389533,0.0005326165119186044
1772514967481940000,3.63693994140625,-0.00133154122158885,0.0025299284607172012,0.0005326165119186044
1772514967491985400,3.6469853515625,-0.00133154122158885,0.0025299284607172012,-0.0015978495357558131
1772514967502032400,3.657032470703125,-0.00133154122158885,0.0003994623839389533,-0.0005326165119186044
1772514967512079600,3.66707958984375,-0.00133154122158885,0.0014646954368799925,-0.0005326165119186044
1772514967522126800,3.677126953125,-0.00133154122158885,0.0003994623839389533,0.0005326165119186044
1772514967532170000,3.687169921875,-0.00133154122158885,0.0025299284607172012,-0.0005326165119186044
1772514967542216700,3.697216796875,-0.0023967742454260588,0.0025299284607172012,-0.0005326165119186044
1772514967552266800,3.707266845703125,-0.0023967742454260588,0.00359516148455441,0.0005326165119186044
1772514967562314000,3.71731396484375,-0.00133154122158885,0.00359516148455441,0.0005326165119186044
1772514967572359400,3.727359375,-0.00133154122158885,0.0025299284607172012,0.0005326165119186044
1772514967582406400,3.737406494140625,-0.0002663082559593022,0.0025299284607172012,0.0005326165119186044
1772514967592454000,3.747453857421875,-0.0023967742454260588,0.0025299284607172012,0.0015978495357558131
1772514967602500900,3.7575009765625,-0.0023967742454260588,0.0014646954368799925,0.0005326165119186044
1772514967612546800,3.767546875,-0.0002663082559593022,0.0003994623839389533,0.0005326165119186044
1772514967622593500,3.777593505859375,-0.0023967742454260588,0.0014646954368799925,0.0005326165119186044
1772514967632638700,3.787638671875,-0.00133154122158885,0.0025299284607172012,0.0005326165119186044
1772514967642685200,3.797685302734375,-0.0023967742454260588,0.00359516148455441,0.0015978495357558131
1772514967652757500,3.807757568359375,-0.00133154122158885,0.0014646954368799925,0.0026630824431777
1772514967662806500,3.817806640625,-0.0034620072692632675,0.0025299284607172012,0.0015978495357558131
1772514967672830000,3.827829833984375,-0.0023967742454260588,0.0014646954368799925,0.0005326165119186044
1772514967682876700,3.837876708984375,-0.00133154122158885,0.0003994623839389533,-0.0005326165119186044
1772514967692921300,3.84792138671875,-0.0002663082559593022,0.0025299284607172012,0.0005326165119186044
1772514967702967800,3.8579677734375,-0.00133154122158885,0.0025299284607172012,0.0005326165119186044
1772514967713017600,3.868017578125,-0.00133154122158885,0.0025299284607172012,-0.0005326165119186044
1772514967723064300,3.878064208984375,-0.0023967742454260588,0.0014646954368799925,0.0005326165119186044
1772514967733115000,3.888114990234375,-0.00133154122158885,0.0003994623839389533,-0.0005326165119186044
1772514967743162000,3.898162109375,-0.0002663082559593022,0.0014646954368799925,0.0005326165119186044
1772514967753209000,3.908208984375,-0.0023967742454260588,0.0014646954368799925,0.0015978495357558131
1772514967763256000,3.918256103515625,-0.00133154122158885,0.0003994623839389533,0.0005326165119186044
1772514967773297000,3.928296875,-0.0002663082559593022,0.0014646954368799925,-0.0005326165119186044
1772514967783343400,3.93834326171875,-0.00133154122158885,0.00359516148455441,0.0005326165119186044
1772514967793395000,3.94839501953125,-0.0002663082559593022,0.0014646954368799925,0.0005326165119186044
1772514967803442000,3.95844189453125,-0.0023967742454260588,0.0014646954368799925,-0.0005326165119186044
1772514967813486000,3.968486083984375,-0.0002663082559593022,0.0014646954368799925,-0.0015978495357558131
1772514967823532800,3.97853271484375,-0.00133154122158885,0.0014646954368799925,0.0015978495357558131
1772514967833597700,3.98859765625,-0.00133154122158885,0.0025299284607172012,0.0015978495357558131
1772514967843646200,3.998646240234375,-0.00133154122158885,0.00359516148455441,-0.0005326165119186044
1772514967853677600,4.008677490234375,-0.0002663082559593022,0.00359516148455441,-0.0015978495357558131
1772514967863724500,4.018724609375,-0.0002663082559593022,0.0025299284607172012,0.0015978495357558131
1772514967873772000,4.02877197265625,0.0007989247678779066,0.0014646954368799925,-0.0005326165119186044
1772514967883818800,4.03881884765625,-0.0002663082559593022,0.0025299284607172012,-0.0005326165119186044
1772514967893863200,4.04886328125,-0.00133154122158885,0.00359516148455441,0.0015978495357558131
1772514967903909600,4.05890966796875,-0.00133154122158885,0.0025299284607172012,0.0005326165119186044
1772514967913958700,4.068958740234375,-0.00133154122158885,0.0025299284607172012,-0.0005326165119186044
1772514967924005600,4.079005615234375,-0.00133154122158885,0.00359516148455441,-0.0005326165119186044
1772514967934043000,4.08904296875,-0.00133154122158885,0.0025299284607172012,-0.0015978495357558131
1772514967944088800,4.0990888671875,-0.0002663082559593022,0.0025299284607172012,0.0005326165119186044
1772514967954144000,4.10914404296875,-0.0002663082559593022,0.0025299284607172012,0.0005326165119186044
1772514967964190700,4.119190673828125,-0.0002663082559593022,0.0025299284607172012,-0.0005326165119186044
1772514967974241000,4.129240966796875,-0.0002663082559593022,0.0025299284607172012,-0.0005326165119186044
1772514967984288300,4.139288330078125,-0.00133154122158885,0.0025299284607172012,0.0005326165119186044
1772514967994316300,4.14931640625,-0.0023967742454260588,0.0025299284607172012,0.0026630824431777
1772514968004361700,4.15936181640625,-0.00133154122158885,0.0003994623839389533,0.0015978495357558131
1772514968014424300,4.16942431640625,-0.0002663082559593022,0.0025299284607172012,-0.0005326165119186044
1772514968024471300,4.17947119140625,-0.00133154122158885,0.0025299284607172012,0.0005326165119186044
1772514968034523400,4.1895234375,-0.00133154122158885,0.00359516148455441,0.0005326165119186044
1772514968044571000,4.19957080078125,-0.00133154122158885,0.0025299284607172012,0.0015978495357558131
1772514968054628900,4.20962890625,-0.00133154122158885,0.0025299284607172012,-0.0005326165119186044
1772514968064677400,4.219677490234375,-0.0002663082559593022,0.0014646954368799925,-0.0005326165119186044
1772514968074691800,4.22969189453125,0.0007989247678779066,0.0014646954368799925,-0.0005326165119186044
1772514968084737000,4.239737060546875,-0.0002663082559593022,0.0014646954368799925,-0.0005326165119186044
1772514968094802700,4.249802734375,-0.00133154122158885,0.00359516148455441,0.0005326165119186044
1772514968104850000,4.259849853515625,-0.0023967742454260588,0.00359516148455441,0.0005326165119186044
1772514968114896100,4.269896240234375,-0.0023967742454260588,0.00359516148455441,0.0005326165119186044
1772514968124943400,4.279943359375,-0.00133154122158885,0.00359516148455441,0.0015978495357558131
1772514968134989000,4.289989013671875,-0.00133154122158885,0.0025299284607172012,0.0005326165119186044
1772514968145035800,4.300035888671875,-0.00133154122158885,0.0025299284607172012,0.0005326165119186044
1772514968155084000,4.310083984375,-0.00133154122158885,0.0025299284607172012,-0.0005326165119186044
1772514968165131300,4.32013134765625,-0.0023967742454260588,0.0025299284607172012,-0.0015978495357558131
1772514968175181000,4.33018115234375,-0.0002663082559593022,0.0014646954368799925,0.0005326165119186044
1772514968185228500,4.340228515625,-0.00133154122158885,0.0025299284607172012,-0.0005326165119186044
1772514968195273500,4.3502734375,-0.00133154122158885,0.0025299284607172012,-0.0005326165119186044
1772514968205320700,4.36032080078125,-0.00133154122158885,0.00359516148455441,0.0005326165119186044
1772514968215367200,4.3703671875,-0.00133154122158885,0.0025299284607172012,-0.0005326165119186044
1772514968225414100,4.3804140625,-0.00133154122158885,0.0025299284607172012,0.0005326165119186044
1772514968235460000,4.390460205078125,-0.00133154122158885,0.0025299284607172012,0.0005326165119186044
1772514968245506800,4.4005068359375,-0.0002663082559593022,0.0025299284607172012,0.0005326165119186044
1772514968255557000,4.41055712890625,-0.00133154122158885,0.0003994623839389533,-0.0005326165119186044
1772514968265604400,4.420604248046875,-0.0034620072692632675,0.0025299284607172012,0.0005326165119186044
1772514968275684900,4.430684814453125,-0.00133154122158885,0.00359516148455441,0.0005326165119186044
1772514968285735400,4.4407353515625,-0.00133154122158885,0.0014646954368799925,0.0005326165119186044
1772514968295742700,4.45074267578125,-0.0023967742454260588,0.0025299284607172012,0.0005326165119186044
1772514968305789000,4.460788818359375,-0.0023967742454260588,0.00359516148455441,0.0015978495357558131
1772514968315838200,4.470838134765625,-0.00133154122158885,0.0025299284607172012,0.0015978495357558131
1772514968325885000,4.480885009765625,-0.00133154122158885,0.0014646954368799925,0.0005326165119186044
1772514968335932700,4.4909326171875,-0.00133154122158885,0.00359516148455441,0.0005326165119186044
1772514968345979400,4.5009794921875,0.0007989247678779066,0.00359516148455441,-0.0005326165119186044
1772514968356022500,4.5110224609375,0.0007989247678779066,0.0025299284607172012,0.0005326165119186044
1772514968366068700,4.52106884765625,-0.0023967742454260588,0.0025299284607172012,-0.0005326165119186044
1772514968376118300,4.5311181640625,-0.00133154122158885,0.00359516148455441,0.0005326165119186044
1772514968386165000,4.5411650390625,-0.0002663082559593022,0.0025299284607172012,0.0005326165119186044
1772514968396212500,4.55121240234375,-0.0023967742454260588,0.0014646954368799925,-0.0005326165119186044
1772514968406259200,4.56125927734375,-0.00133154122158885,0.0025299284607172012,-0.0005326165119186044
1772514968416308000,4.571307861328125,-0.00133154122158885,0.0014646954368799925,0.0005326165119186044
1772514968426355000,4.58135498046875,-0.00133154122158885,0.0003994623839389533,0.0005326165119186044
1772514968436400000,4.591400146484375,-0.0034620072692632675,0.0025299284607172012,-0.0005326165119186044
1772514968446447000,4.601447021484375,-0.0034620072692632675,0.00359516148455441,0.0005326165119186044
1772514968456497000,4.611496826171875,-0.0023967742454260588,0.0025299284607172012,0.0005326165119186044
1772514968466543900,4.6215439453125,-0.00133154122158885,0.00359516148455441,0.0015978495357558131
1772514968476580000,4.631580078125,-0.00133154122158885,0.00359516148455441,-0.0005326165119186044
1772514968486626000,4.6416259765625,-0.0023967742454260588,0.00359516148455441,-0.0005326165119186044
1772514968496684300,4.651684326171875,-0.00133154122158885,0.00359516148455441,0.0005326165119186044
1772514968506731500,4.6617314453125,-0.0023967742454260588,0.0014646954368799925,0.0015978495357558131
1772514968516778500,4.671778564453125,-0.0023967742454260588,0.0014646954368799925,0.0005326165119186044
1772514968526825700,4.68182568359375,-0.0002663082559593022,0.0025299284607172012,-0.0015978495357558131
1772514968536870100,4.6918701171875,-0.00133154122158885,0.0014646954368799925,0.0005326165119186044
1772514968546917000,4.701917236328125,-0.0023967742454260588,0.00359516148455441,0.0026630824431777
1772514968556964400,4.71196435546875,-0.0023967742454260588,0.0025299284607172012,-0.0005326165119186044
1772514968567011300,4.72201123046875,-0.0023967742454260588,0.0025299284607172012,0.0005326165119186044
1772514968577059000,4.73205908203125,-0.00133154122158885,0.0025299284607172012,-0.0005326165119186044
1772514968587106300,4.742106201171875,-0.00133154122158885,0.0025299284607172012,0.0005326165119186044
1772514968597150200,4.752150146484375,-0.00133154122158885,0.00359516148455441,0.0015978495357558131
1772514968607197000,4.762197021484375,-0.00133154122158885,0.0025299284607172012,0.0005326165119186044
1772514968617256700,4.772256591796875,-0.0023967742454260588,0.0025299284607172012,-0.0005326165119186044
1772514968627304700,4.7823046875,-0.00133154122158885,0.0003994623839389533,0.0005326165119186044
1772514968637341700,4.792341796875,-0.00133154122158885,0.0025299284607172012,0.0005326165119186044
1772514968647388700,4.802388671875,-0.00133154122158885,0.00359516148455441,-0.0026630824431777
1772514968657451300,4.812451171875,-0.0002663082559593022,0.0025299284607172012,-0.0005326165119186044
1772514968667500000,4.8225,-0.0002663082559593022,0.0014646954368799925,0.0005326165119186044
1772514968677542700,4.832542724609375,-0.00133154122158885,0.0014646954368799925,0.0005326165119186044
1772514968687590700,4.842590576171875,-0.0002663082559593022,0.0025299284607172012,0.0005326165119186044
1772514968697624000,4.8526240234375,-0.00133154122158885,0.0014646954368799925,-0.0005326165119186044
1772514968707670500,4.86267041015625,-0.00133154122158885,0.0014646954368799925,-0.0005326165119186044
1772514968717715500,4.872715576171875,-0.0023967742454260588,0.0025299284607172012,-0.0005326165119186044
1772514968727761700,4.88276171875,-0.00133154122158885,0.0014646954368799925,-0.0015978495357558131
1772514968737812200,4.892812255859375,-0.00133154122158885,0.0014646954368799925,-0.0015978495357558131
1772514968747859000,4.90285888671875,-0.00133154122158885,0.0025299284607172012,0.0005326165119186044
1772514968757904600,4.912904541015625,-0.00133154122158885,0.0025299284607172012,-0.0015978495357558131
1772514968767951400,4.922951416015625,0.0007989247678779066,0.0014646954368799925,-0.0005326165119186044
1772514968777996300,4.932996337890625,-0.0002663082559593022,0.0014646954368799925,0.0005326165119186044
1772514968788042800,4.943042724609375,-0.00133154122158885,0.0025299284607172012,0.0005326165119186044
1772514968798091800,4.953091796875,-0.0002663082559593022,0.0025299284607172012,-0.0005326165119186044
1772514968808138500,4.963138427734375,-0.00133154122158885,0.00359516148455441,0.0005326165119186044
1772514968818187000,4.97318701171875,-0.0023967742454260588,0.0025299284607172012,0.0005326165119186044
1772514968828234000,4.98323388671875,-0.00133154122158885,0.0014646954368799925,-0.0005326165119186044
1772514968838277000,4.993277099609375,-0.0034620072692632675,0.0025299284607172012,0.0005326165119186044
1772514968848323800,5.00332373046875,-0.00133154122158885,0.004660394508391619,0.0015978495357558131
1772514968858373000,5.013373046875,0.0007989247678779066,0.0025299284607172012,-0.0005326165119186044
1772514968868419800,5.023419921875,-0.0002663082559593022,0.0025299284607172012,-0.0005326165119186044
1772514968878480400,5.03348046875,-0.00133154122158885,0.0014646954368799925,0.0005326165119186044
1772514968888528400,5.0435283203125,-0.00133154122158885,0.0025299284607172012,0.0015978495357558131
1772514968898561300,5.053561279296875,-0.0023967742454260588,0.00359516148455441,0.0015978495357558131
1772514968908608000,5.06360791015625,-0.00133154122158885,0.0025299284607172012,0.0005326165119186044
1772514968918655700,5.07365576171875,-0.00133154122158885,0.0025299284607172012,-0.0005326165119186044
1772514968928702500,5.083702392578125,-0.0023967742454260588,0.00359516148455441,0.0005326165119186044
1772514968938749700,5.093749755859375,-0.0023967742454260588,0.0025299284607172012,0.0015978495357558131
1772514968948796400,5.10379638671875,-0.00133154122158885,0.0003994623839389533,-0.0005326165119186044
1772514968958842400,5.11384228515625,-0.00133154122158885,0.0003994623839389533,-0.0005326165119186044
1772514968968889000,5.12388916015625,-0.00133154122158885,0.0025299284607172012,-0.0005326165119186044
1772514968978936000,5.13393603515625,-0.00133154122158885,0.0014646954368799925,0.0005326165119186044
1772514968988982800,5.143982666015625,-0.00133154122158885,0.0025299284607172012,0.0005326165119186044
1772514968999029500,5.154029541015625,-0.0002663082559593022,0.0025299284607172012,0.0015978495357558131
1772514969009076200,5.164076171875,-0.00133154122158885,0.0014646954368799925,0.0005326165119186044
1772514969019127000,5.174126953125,-0.00133154122158885,0.0025299284607172012,0.0005326165119186044
1772514969029174300,5.18417431640625,-0.0002663082559593022,0.0025299284607172012,-0.0005326165119186044
1772514969039220200,5.19422021484375,-0.0002663082559593022,0.00359516148455441,-0.0005326165119186044
1772514969049267200,5.20426708984375,-0.0023967742454260588,0.0025299284607172012,-0.0005326165119186044
1772514969059311400,5.214311279296875,-0.00133154122158885,0.0014646954368799925,0.0005326165119186044
1772514969069358000,5.224358154296875,0.0007989247678779066,0.0014646954368799925,0.0005326165119186044
1772514969079404000,5.234404052734375,-0.00133154122158885,0.00359516148455441,-0.0005326165119186044
1772514969089450800,5.24445068359375,-0.0023967742454260588,0.0025299284607172012,-0.0005326165119186044
1772514969099501000,5.2545009765625,-0.00133154122158885,0.00359516148455441,-0.0005326165119186044
1772514969109548000,5.264548095703125,-0.00133154122158885,0.0025299284607172012,-0.0005326165119186044
1772514969119599900,5.274599853515625,-0.0023967742454260588,0.0025299284607172012,-0.0005326165119186044
1772514969129647400,5.2846474609375,-0.0023967742454260588,0.0014646954368799925,0.0005326165119186044
1772514969139670300,5.294670166015625,-0.0023967742454260588,0.0025299284607172012,0.0005326165119186044
1772514969149715500,5.304715576171875,-0.0023967742454260588,0.0025299284607172012,-0.0005326165119186044
1772514969159780900,5.31478076171875,-0.00133154122158885,0.0025299284607172012,-0.0015978495357558131
1772514969169828000,5.324828125,-0.0002663082559593022,0.0025299284607172012,0.0005326165119186044
1772514969179859200,5.334859130859375,-0.0023967742454260588,0.0014646954368799925,0.0005326165119186044
1772514969189905000,5.34490478515625,-0.00133154122158885,0.00359516148455441,0.0005326165119186044
1772514969199969300,5.35496923828125,-0.00133154122158885,0.0025299284607172012,0.0005326165119186044
1772514969210016800,5.365016845703125,-0.00133154122158885,0.00359516148455441,0.0005326165119186044
1772514969220082700,5.375082763671875,-0.0002663082559593022,0.0025299284607172012,0.0015978495357558131
1772514969230132000,5.385132080078125,-0.00133154122158885,0.00359516148455441,0.0015978495357558131
1772514969240158700,5.39515869140625,-0.00133154122158885,0.00359516148455441,0.0015978495357558131
1772514969250205700,5.405205810546875,-0.0002663082559593022,0.0025299284607172012,0.0005326165119186044
1772514969260251400,5.41525146484375,-0.0002663082559593022,0.0014646954368799925,-0.0005326165119186044
1772514969270298000,5.425298095703125,-0.0023967742454260588,0.0025299284607172012,-0.0005326165119186044
1772514969280344800,5.4353447265625,-0.00133154122158885,0.0014646954368799925,0.0005326165119186044
1772514969290391600,5.4453916015625,-0.00133154122158885,0.0025299284607172012,0.0015978495357558131
1772514969300440000,5.455440185546875,-0.00133154122158885,0.0014646954368799925,0.0015978495357558131
1772514969310487000,5.465487060546875,-0.0002663082559593022,0.0014646954368799925,0.0005326165119186044
1772514969320563700,5.475563720703125,-0.00133154122158885,0.0014646954368799925,-0.0005326165119186044
1772514969330613800,5.48561376953125,-0.00133154122158885,0.0025299284607172012,-0.0005326165119186044
1772514969340631800,5.4956318359375,-0.00133154122158885,0.0025299284607172012,0.0005326165119186044
1772514969350678500,5.505678466796875,-0.00133154122158885,0.00359516148455441,0.0005326165119186044
1772514969360718000,5.515718017578125,-0.0002663082559593022,0.0014646954368799925,0.0005326165119186044
1772514969370764000,5.525763916015625,-0.0023967742454260588,0.0014646954368799925,0.0005326165119186044
1772514969380813300,5.535813232421875,-0.00133154122158885,0.0025299284607172012,-0.0005326165119186044
1772514969390859500,5.545859619140625,-0.0002663082559593022,0.00359516148455441,0.0005326165119186044
1772514969400910800,5.555910888671875,-0.00133154122158885,0.0014646954368799925,0.0015978495357558131
1772514969410957600,5.56595751953125,-0.0023967742454260588,0.0014646954368799925,0.0005326165119186044
1772514969421002200,5.576002197265625,-0.0023967742454260588,0.0014646954368799925,0.0005326165119186044
1772514969431048700,5.586048583984375,-0.00133154122158885,0.0025299284607172012,-0.0015978495357558131
1772514969441097200,5.59609716796875,-0.00133154122158885,0.0025299284607172012,-0.0005326165119186044
1772514969451144000,5.60614404296875,-0.00133154122158885,0.0014646954368799925,0.0005326165119186044
1772514969461192400,5.6161923828125,-0.0023967742454260588,0.0025299284607172012,-0.0005326165119186044
1772514969471239400,5.626239501953125,-0.00133154122158885,0.00359516148455441,0.0005326165119186044
1772514969481293000,5.63629296875,-0.00133154122158885,0.00359516148455441,-0.0005326165119186044
1772514969491340800,5.6463408203125,-0.0002663082559593022,0.0025299284607172012,0.0005326165119186044
1772514969501377000,5.656376953125,-0.0023967742454260588,0.0025299284607172012,0.0005326165119186044
1772514969511423500,5.666423583984375,-0.00133154122158885,0.0025299284607172012,-0.0005326165119186044
1772514969521482800,5.676482666015625,-0.0002663082559593022,0.00359516148455441,0.0005326165119186044
1772514969531530200,5.6865302734375,-0.00133154122158885,0.00359516148455441,0.0005326165119186044
1772514969541561300,5.696561279296875,-0.00133154122158885,0.0025299284607172012,0.0005326165119186044
1772514969551607600,5.706607666015625,-0.0023967742454260588,0.00359516148455441,-0.0015978495357558131
1772514969561660700,5.71666064453125,-0.0034620072692632675,0.0014646954368799925,-0.0005326165119186044
1772514969571707600,5.726707763671875,-0.0023967742454260588,0.0003994623839389533,0.0005326165119186044
1772514969581752300,5.73675244140625,-0.0002663082559593022,0.00359516148455441,-0.0015978495357558131
1772514969591799000,5.746799072265625,-0.0002663082559593022,0.00359516148455441,-0.0005326165119186044
1772514969601852200,5.75685205078125,-0.0002663082559593022,0.0025299284607172012,-0.0005326165119186044
1772514969611899400,5.7668994140625,-0.00133154122158885,0.0014646954368799925,0.0005326165119186044
1772514969621942500,5.776942626953125,-0.0023967742454260588,0.00359516148455441,0.0015978495357558131
1772514969631989200,5.7869892578125,-0.00133154122158885,0.00359516148455441,-0.0005326165119186044
1772514969642035200,5.79703515625,-0.0002663082559593022,0.00359516148455441,-0.0005326165119186044
1772514969652082000,5.80708203125,-0.0034620072692632675,0.0014646954368799925,0.0005326165119186044
1772514969662132000,5.817132080078125,-0.0023967742454260588,0.0014646954368799925,-0.0005326165119186044
1772514969672179200,5.82717919921875,-0.00133154122158885,0.0014646954368799925,-0.0015978495357558131
1772514969682226200,5.83722607421875,-0.00133154122158885,0.0025299284607172012,0.0005326165119186044
1772514969692273400,5.8472734375,-0.0002663082559593022,0.00359516148455441,0.0015978495357558131
1772514969702320400,5.8573203125,-0.00133154122158885,0.0025299284607172012,0.0005326165119186044
1772514969712367600,5.86736767578125,-0.0002663082559593022,0.0014646954368799925,-0.0005326165119186044
1772514969722410500,5.877410400390625,-0.00133154122158885,0.00359516148455441,-0.0005326165119186044
1772514969732457200,5.887457275390625,-0.00133154122158885,0.0025299284607172012,-0.0005326165119186044
1772514969742489600,5.897489501953125,-0.0023967742454260588,0.0025299284607172012,0.0005326165119186044
1772514969752535000,5.90753515625,-0.00133154122158885,0.0014646954368799925,0.0015978495357558131
1772514969762601000,5.91760107421875,-0.00133154122158885,0.0003994623839389533,0.0005326165119186044
1772514969772648200,5.927648193359375,-0.0002663082559593022,0.0003994623839389533,0.0005326165119186044
1772514969782703000,5.937703125,-0.0002663082559593022,0.0014646954368799925,-0.0005326165119186044
1772514969792751000,5.947751220703125,-0.00133154122158885,0.0025299284607172012,0.0005326165119186044
1772514969802791400,5.95779150390625,-0.0023967742454260588,0.0014646954368799925,-0.0005326165119186044
1772514969812838700,5.967838623046875,-0.00133154122158885,0.0014646954368799925,0.0005326165119186044
1772514969822881800,5.9778818359375,-0.00133154122158885,0.0025299284607172012,0.0005326165119186044
1772514969832928800,5.9879287109375,-0.0023967742454260588,0.0025299284607172012,-0.0005326165119186044
1772514969842971600,5.9979716796875,-0.0034620072692632675,0.0025299284607172012,-0.0005326165119186044
1772514969853018000,6.00801806640625,-0.0002663082559593022,0.0014646954368799925,0.0005326165119186044
1772514969863067100,6.018067138671875,-0.00133154122158885,0.0025299284607172012,-0.0005326165119186044
1772514969873113900,6.02811376953125,-0.0002663082559593022,0.0014646954368799925,-0.0005326165119186044
1772514969883164000,6.038163818359375,-0.00133154122158885,0.0025299284607172012,-0.0015978495357558131
1772514969893211000,6.0482109375,-0.00133154122158885,0.0025299284607172012,-0.0005326165119186044
1772514969903258400,6.05825830078125,-0.0023967742454260588,0.00359516148455441,0.0005326165119186044
1772514969913305300,6.068305419921875,-0.0023967742454260588,0.00359516148455441,0.0005326165119186044
1772514969923349500,6.078349609375,-0.00133154122158885,0.0025299284607172012,-0.0005326165119186044
1772514969933396200,6.088396240234375,-0.00133154122158885,0.0025299284607172012,-0.0005326165119186044
1772514969943413500,6.09841357421875,-0.00133154122158885,0.0025299284607172012,0.0015978495357558131
1772514969953457400,6.10845751953125,-0.00133154122158885,0.0025299284607172012,0.0005326165119186044
1772514969963538700,6.11853857421875,-0.0023967742454260588,0.0014646954368799925,0.0015978495357558131
1772514969973586200,6.128586181640625,-0.00133154122158885,0.0025299284607172012,0.0005326165119186044
1772514969983634400,6.138634521484375,-0.00133154122158885,0.0025299284607172012,-0.0005326165119186044
1772514969993682200,6.14868212890625,-0.0002663082559593022,0.0025299284607172012,0.0005326165119186044
1772514970003730200,6.158730224609375,-0.00133154122158885,0.0025299284607172012,-0.0005326165119186044
1772514970013777700,6.168777587890625,-0.00133154122158885,0.0025299284607172012,-0.0005326165119186044
1772514970023822600,6.178822509765625,-0.00133154122158885,0.0025299284607172012,0.0015978495357558131
1772514970033869800,6.188869873046875,-0.0002663082559593022,0.00359516148455441,0.0015978495357558131
1772514970043915000,6.1989150390625,-0.00133154122158885,0.00359516148455441,0.0015978495357558131
1772514970053962200,6.208962158203125,-0.00133154122158885,0.0025299284607172012,-0.0005326165119186044
1772514970064009200,6.21900927734375,0.0007989247678779066,0.0025299284607172012,0.0005326165119186044
1772514970074056400,6.229056396484375,-0.0002663082559593022,0.0014646954368799925,0.0015978495357558131
1772514970084101600,6.2391015625,-0.00133154122158885,0.0014646954368799925,-0.0005326165119186044
1772514970094148600,6.249148681640625,-0.00133154122158885,0.0025299284607172012,0.0005326165119186044
1772514970104222200,6.25922216796875,-0.00133154122158885,0.0025299284607172012,0.0026630824431777
1772514970114272000,6.26927197265625,-0.00133154122158885,0.00359516148455441,0.0005326165119186044
1772514970124291800,6.279291748046875,-0.00133154122158885,0.00359516148455441,0.0005326165119186044
1772514970134338600,6.289338623046875,-0.00133154122158885,0.0014646954368799925,0.0005326165119186044
1772514970144408600,6.29940869140625,-0.0002663082559593022,0.0025299284607172012,-0.0005326165119186044
1772514970154457300,6.309457275390625,-0.0023967742454260588,0.0025299284607172012,0.0015978495357558131
1772514970164479000,6.31947900390625,-0.0023967742454260588,0.0025299284607172012,0.0005326165119186044
1772514970174525400,6.329525390625,-0.00133154122158885,0.0025299284607172012,-0.0015978495357558131
1772514970184573700,6.33957373046875,-0.00133154122158885,0.00359516148455441,0.0005326165119186044
1772514970194620200,6.3496201171875,-0.00133154122158885,0.0025299284607172012,0.0015978495357558131
1772514970204667100,6.359667236328125,-0.00133154122158885,0.0025299284607172012,0.0005326165119186044
1772514970214713600,6.369713623046875,-0.00133154122158885,0.0025299284607172012,-0.0005326165119186044
1772514970224762000,6.37976220703125,-0.0002663082559593022,0.0025299284607172012,0.0015978495357558131
1772514970234808800,6.389808837890625,-0.00133154122158885,0.0014646954368799925,0.0015978495357558131
1772514970244850700,6.3998505859375,-0.0002663082559593022,0.0014646954368799925,0.0005326165119186044
1772514970254897000,6.40989697265625,-0.00133154122158885,0.0025299284607172012,0.0005326165119186044
1772514970264950000,6.419949951171875,-0.00133154122158885,0.0025299284607172012,-0.0005326165119186044
1772514970274997000,6.4299970703125,-0.0023967742454260588,0.00359516148455441,0.0005326165119186044
1772514970285040600,6.44004052734375,-0.00133154122158885,0.0025299284607172012,-0.0005326165119186044
1772514970295087000,6.450087158203125,-0.00133154122158885,0.0025299284607172012,0.0005326165119186044
1772514970305129500,6.46012939453125,-0.00133154122158885,0.0014646954368799925,-0.0015978495357558131
1772514970315175700,6.47017578125,-0.0023967742454260588,0.0014646954368799925,-0.0005326165119186044
1772514970325228000,6.48022802734375,-0.0023967742454260588,0.0025299284607172012,-0.0005326165119186044
1772514970335274800,6.490274658203125,-0.00133154122158885,0.0014646954368799925,0.0005326165119186044
1772514970345319400,6.5003193359375,-0.00133154122158885,0.0014646954368799925,-0.0005326165119186044
1772514970355366000,6.510365966796875,-0.00133154122158885,0.0014646954368799925,0.0005326165119186044
1772514970365382000,6.5203818359375,0.0007989247678779066,0.0025299284607172012,-0.0005326165119186044
1772514970375425300,6.53042529296875,-0.00133154122158885,0.0025299284607172012,-0.0005326165119186044
1772514970385511700,6.54051171875,-0.0023967742454260588,0.0014646954368799925,-0.0005326165119186044
1772514970395559400,6.550559326171875,-0.0002663082559593022,0.0014646954368799925,0.0015978495357558131
1772514970405603800,6.560603759765625,-0.0002663082559593022,0.0025299284607172012,-0.0005326165119186044
1772514970415651000,6.570651123046875,-0.00133154122158885,0.0025299284607172012,-0.0005326165119186044
1772514970425698300,6.5806982421875,-0.00133154122158885,0.004660394508391619,-0.0015978495357558131
1772514970435745800,6.590745849609375,-0.0023967742454260588,0.0025299284607172012,-0.0005326165119186044
1772514970445795800,6.6007958984375,-0.00133154122158885,0.0014646954368799925,0.0026630824431777
1772514970455843600,6.610843505859375,-0.0002663082559593022,0.0025299284607172012,0.0015978495357558131
1772514970465887200,6.62088720703125,-0.0002663082559593022,0.0003994623839389533,-0.0005326165119186044
1772514970475934500,6.6309345703125,-0.0002663082559593022,0.0025299284607172012,0.0005326165119186044
1772514970485983500,6.6409833984375,-0.0002663082559593022,0.004660394508391619,-0.0005326165119186044
1772514970496030700,6.65103076171875,-0.0002663082559593022,0.0014646954368799925,-0.0005326165119186044
1772514970506076000,6.661075927734375,-0.0002663082559593022,0.0003994623839389533,0.0005326165119186044
1772514970516123100,6.671123046875,-0.0002663082559593022,0.00359516148455441,-0.0005326165119186044
1772514970526170000,6.681170166015625,-0.00133154122158885,0.0014646954368799925,0.0005326165119186044
1772514970536217000,6.691217041015625,-0.00133154122158885,0.0014646954368799925,0.0015978495357558131
1772514970546261500,6.701261474609375,-0.00133154122158885,0.0025299284607172012,-0.0005326165119186044
1772514970556308500,6.71130859375,-0.00133154122158885,0.0025299284607172012,0.0005326165119186044
1772514970566358500,6.721358642578125,-0.0002663082559593022,0.0025299284607172012,0.0005326165119186044
1772514970576405800,6.73140576171875,-0.0002663082559593022,0.00359516148455441,-0.0005326165119186044
1772514970586450000,6.741449951171875,-0.0002663082559593022,0.0025299284607172012,-0.0005326165119186044
1772514970596496600,6.75149658203125,-0.00133154122158885,0.00359516148455441,0.0005326165119186044
1772514970606610400,6.7616103515625,-0.0002663082559593022,0.0025299284607172012,0.0015978495357558131
1772514970616664000,6.7716640625,-0.00133154122158885,0.0025299284607172012,0.0005326165119186044
1772514970626638000,6.78163818359375,-0.00133154122158885,0.0014646954368799925,-0.0005326165119186044
1772514970636683800,6.791683837890625,-0.0002663082559593022,0.0025299284607172012,0.0005326165119186044
1772514970646733800,6.80173388671875,-0.0023967742454260588,0.0025299284607172012,0.0005326165119186044
1772514970656780000,6.811780029296875,-0.00133154122158885,0.0014646954368799925,0.0005326165119186044
1772514970666810600,6.821810546875,-0.0023967742454260588,0.00359516148455441,-0.0005326165119186044
1772514970676855000,6.83185498046875,-0.00133154122158885,0.00359516148455441,0.0005326165119186044
1772514970686917600,6.841917724609375,-0.0002663082559593022,0.0014646954368799925,0.0005326165119186044
1772514970696964000,6.851964111328125,-0.00133154122158885,0.0025299284607172012,-0.0005326165119186044
1772514970706995200,6.8619951171875,-0.00133154122158885,0.0025299284607172012,-0.0015978495357558131
1772514970717039900,6.872039794921875,-0.00133154122158885,0.00359516148455441,-0.0005326165119186044
1772514970727103500,6.882103515625,-0.00133154122158885,0.004660394508391619,0.0005326165119186044
1772514970737150200,6.892150146484375,-0.0023967742454260588,0.00359516148455441,0.0005326165119186044
1772514970747186200,6.902186279296875,-0.00133154122158885,0.00359516148455441,0.0005326165119186044
1772514970757231900,6.91223193359375,-0.00133154122158885,0.0025299284607172012,-0.0005326165119186044
1772514970767294700,6.922294677734375,-0.00133154122158885,0.00359516148455441,0.0005326165119186044
1772514970777342000,6.932342041015625,0.0007989247678779066,0.0025299284607172012,0.0005326165119186044
1772514970787390700,6.942390625,-0.0002663082559593022,0.0025299284607172012,0.0005326165119186044
1772514970797438200,6.952438232421875,-0.00133154122158885,0.00359516148455441,0.0015978495357558131
1772514970807482400,6.962482421875,-0.00133154122158885,0.0014646954368799925,-0.0005326165119186044
1772514970817529600,6.972529541015625,-0.00133154122158885,0.0014646954368799925,-0.0015978495357558131
1772514970827578600,6.98257861328125,-0.00133154122158885,0.0025299284607172012,-0.0005326165119186044
1772514970837626000,6.992626220703125,-0.0023967742454260588,0.00359516148455441,0.0005326165119186044
1772514970847671300,7.00267138671875,-0.0002663082559593022,0.0014646954368799925,0.0005326165119186044
1772514970857718500,7.012718505859375,-0.00133154122158885,0.0014646954368799925,0.0005326165119186044
1772514970867767000,7.02276708984375,-0.00133154122158885,0.0025299284607172012,-0.0005326165119186044
1772514970877814300,7.032814208984375,-0.0002663082559593022,0.0025299284607172012,-0.0005326165119186044
1772514970887862300,7.0428623046875,-0.0023967742454260588,0.0025299284607172012,0.0015978495357558131
1772514970897909500,7.052909423828125,-0.0023967742454260588,0.0025299284607172012,0.0005326165119186044
1772514970907954200,7.0629541015625,-0.0002663082559593022,0.0014646954368799925,0.0005326165119186044
1772514970918001400,7.07300146484375,0.0007989247678779066,0.00359516148455441,0.0005326165119186044
1772514970928047000,7.083047119140625,-0.0023967742454260588,0.0025299284607172012,0.0005326165119186044
1772514970938094000,7.093093994140625,-0.0023967742454260588,0.0025299284607172012,0.0005326165119186044
1772514970948141300,7.103141357421875,-0.0002663082559593022,0.004660394508391619,-0.0005326165119186044
1772514970958188300,7.113188232421875,-0.0002663082559593022,0.00359516148455441,-0.0005326165119186044
1772514970968237000,7.123237060546875,-0.00133154122158885,0.0025299284607172012,0.0026630824431777
1772514970978284000,7.133283935546875,-0.0002663082559593022,0.0014646954368799925,-0.0005326165119186044
1772514970988331000,7.1433310546875,-0.00133154122158885,0.0003994623839389533,-0.0005326165119186044
1772514970998378000,7.1533779296875,-0.0023967742454260588,0.0025299284607172012,-0.0005326165119186044
1772514971008414000,7.1634140625,-0.0023967742454260588,0.0014646954368799925,0.0005326165119186044
1772514971018460000,7.1734599609375,-0.0023967742454260588,0.0025299284607172012,0.0015978495357558131
1772514971028518000,7.183517822265625,-0.00133154122158885,0.0025299284607172012,0.0005326165119186044
1772514971038565000,7.193565185546875,-0.00133154122158885,0.0014646954368799925,-0.0005326165119186044
1772514971048610600,7.203610595703125,-0.0023967742454260588,0.0014646954368799925,0.0015978495357558131
1772514971058657500,7.213657470703125,-0.00133154122158885,0.00359516148455441,0.0005326165119186044
1772514971068702500,7.223702392578125,-0.00133154122158885,0.0025299284607172012,0.0005326165119186044
1772514971078749200,7.233749267578125,-0.00133154122158885,0.0025299284607172012,-0.0005326165119186044
1772514971088798200,7.243798095703125,-0.00133154122158885,0.0025299284607172012,-0.0005326165119186044
1772514971098845200,7.25384521484375,-0.0023967742454260588,0.00359516148455441,-0.0005326165119186044
1772514971108895200,7.263895263671875,-0.00133154122158885,0.0014646954368799925,-0.0015978495357558131
1772514971118942700,7.273942626953125,-0.00133154122158885,0.00359516148455441,-0.0005326165119186044
1772514971128987100,7.283987060546875,-0.00133154122158885,0.00359516148455441,0.0005326165119186044
1772514971139034400,7.294034423828125,-0.00133154122158885,0.00359516148455441,0.0005326165119186044
1772514971149082000,7.30408203125,-0.00133154122158885,0.0014646954368799925,0.0005326165119186044
1772514971159129300,7.31412939453125,-0.0002663082559593022,0.00359516148455441,0.0026630824431777
1772514971169173500,7.324173583984375,-0.0002663082559593022,0.0025299284607172012,0.0005326165119186044
1772514971179220200,7.33422021484375,-0.00133154122158885,0.00359516148455441,0.0015978495357558131
1772514971189269000,7.34426904296875,-0.00133154122158885,0.00359516148455441,0.0005326165119186044
1772514971199316000,7.35431591796875,-0.0023967742454260588,0.0014646954368799925,0.0005326165119186044
1772514971209357800,7.36435791015625,-0.0023967742454260588,0.00359516148455441,0.0005326165119186044
1772514971219404300,7.374404296875,-0.00133154122158885,0.00359516148455441,-0.0005326165119186044
1772514971229458400,7.38445849609375,-0.00133154122158885,0.0014646954368799925,-0.0005326165119186044
1772514971239505700,7.394505615234375,-0.0023967742454260588,0.00359516148455441,-0.0005326165119186044
1772514971249551600,7.404551513671875,-0.00133154122158885,0.0025299284607172012,0.0005326165119186044
1772514971259598800,7.414598876953125,-0.00133154122158885,0.0014646954368799925,-0.0005326165119186044
1772514971269646000,7.42464599609375,-0.00133154122158885,0.0025299284607172012,0.0005326165119186044
1772514971279693300,7.434693359375,-0.0023967742454260588,0.00359516148455441,0.0005326165119186044
1772514971289739000,7.444739013671875,-0.00133154122158885,0.0025299284607172012,0.0005326165119186044
1772514971299786000,7.454785888671875,-0.0002663082559593022,0.0025299284607172012,0.0015978495357558131
1772514971309834200,7.464834228515625,-0.00133154122158885,0.0025299284607172012,0.0005326165119186044
1772514971319881500,7.474881591796875,-0.0023967742454260588,0.0014646954368799925,0.0005326165119186044
1772514971329942500,7.484942626953125,-0.00133154122158885,0.0014646954368799925,0.0005326165119186044
1772514971339991000,7.494990966796875,-0.0002663082559593022,0.00359516148455441,-0.0005326165119186044
1772514971350025700,7.505025634765625,-0.0002663082559593022,0.0025299284607172012,-0.0005326165119186044
1772514971360073000,7.515072998046875,-0.0023967742454260588,0.00359516148455441,0.0015978495357558131
1772514971370114600,7.525114501953125,-0.0023967742454260588,0.00359516148455441,0.0005326165119186044
1772514971380161000,7.5351611328125,-0.00133154122158885,0.0014646954368799925,-0.0005326165119186044
1772514971390210300,7.545210205078125,-0.00133154122158885,0.0025299284607172012,0.0005326165119186044
1772514971400257300,7.55525732421875,-0.00133154122158885,0.00359516148455441,0.0005326165119186044
1772514971410304000,7.565303955078125,-0.00133154122158885,0.00359516148455441,0.0005326165119186044
1772514971420351000,7.57535107421875,-0.00133154122158885,0.0003994623839389533,-0.0005326165119186044
1772514971430418400,7.58541845703125,-0.00133154122158885,0.0025299284607172012,-0.0005326165119186044
1772514971440467500,7.595467529296875,-0.0023967742454260588,0.0025299284607172012,0.0005326165119186044
1772514971450491400,7.605491455078125,-0.00133154122158885,0.0025299284607172012,-0.0005326165119186044
1772514971460537900,7.615537841796875,-0.0002663082559593022,0.0025299284607172012,-0.0015978495357558131
1772514971470586400,7.62558642578125,-0.0002663082559593022,0.0025299284607172012,-0.0005326165119186044
1772514971480633000,7.635633056640625,-0.0002663082559593022,0.0025299284607172012,0.0005326165119186044
1772514971490677500,7.645677490234375,-0.00133154122158885,0.0025299284607172012,-0.0005326165119186044
1772514971500723700,7.6557236328125,-0.00133154122158885,0.0014646954368799925,0.0005326165119186044
1772514971510769400,7.665769287109375,-0.0023967742454260588,0.0014646954368799925,0.0015978495357558131
1772514971520815900,7.67581591796875,-0.0023967742454260588,0.0025299284607172012,0.0005326165119186044
1772514971530863000,7.685863037109375,-0.0002663082559593022,0.0014646954368799925,0.0015978495357558131
1772514971540909300,7.695909423828125,-0.00133154122158885,0.00359516148455441,0.0005326165119186044
1772514971550960600,7.705960693359375,-0.00133154122158885,0.0025299284607172012,0.0005326165119186044
1772514971560991200,7.7159912109375,-0.0010652330238372087,0.0001331541279796511,-0.0007989247678779066
1772514971571038200,7.7260380859375,0,0.0001331541279796511,0.0002663082559593022
1772514971581086000,7.7360859375,0,0.0001331541279796511,-0.0007989247678779066
1772514971591132700,7.746132568359375,0,-0.0009320789249613881,0.0002663082559593022
1772514971601196000,7.756196044921875,-0.0010652330238372087,-0.0009320789249613881,-0.0007989247678779066
1772514971611244500,7.76624462890625,0,0.0011983871227130294,-0.0007989247678779066
1772514971621288700,7.776288818359375,0,0.00226362026296556,0.0002663082559593022
1772514971631337000,7.7863369140625,0,-0.0009320789249613881,0.0002663082559593022
1772514971641383000,7.7963828125,0.0021304660476744175,-0.0009320789249613881,-0.0007989247678779066
1772514971651431000,7.806430908203125,0,0.0011983871227130294,-0.0007989247678779066
1772514971661477400,7.816477294921875,0,0.0001331541279796511,0.0002663082559593022
1772514971671525000,7.826525146484375,0,-0.0009320789249613881,-0.0007989247678779066
1772514971681568800,7.83656884765625,0,-0.0009320789249613881,-0.0007989247678779066
1772514971691616300,7.8466162109375,-0.0010652330238372087,0.0011983871227130294,-0.0007989247678779066
1772514971701667800,7.856667724609375,0.0010652330238372087,0.0011983871227130294,0.0002663082559593022
1772514971711715600,7.866715576171875,-0.0010652330238372087,0.0001331541279796511,0.00133154122158885
1772514971721776600,7.876776611328125,0.0010652330238372087,0.0001331541279796511,-0.0007989247678779066
1772514971731825700,7.88682568359375,0.0010652330238372087,-0.0009320789249613881,0.0002663082559593022
1772514971741873400,7.896873291015625,0,-0.0009320789249613881,0.0002663082559593022
1772514971751922400,7.90692236328125,0.0010652330238372087,0.0011983871227130294,0.0002663082559593022
1772514971761950000,7.916949951171875,0,0.0011983871227130294,0.0002663082559593022
1772514971771996700,7.92699658203125,0,0.0011983871227130294,-0.0007989247678779066
1772514971782043100,7.937043212890625,0,0.0001331541279796511,-0.0007989247678779066
1772514971792089900,7.94708984375,0.0021304660476744175,0.0011983871227130294,0.0002663082559593022
1772514971802135800,7.9571357421875,0,0.0001331541279796511,-0.0007989247678779066
1772514971812182300,7.967182373046875,0,0.0011983871227130294,0.0002663082559593022
1772514971822230500,7.97723046875,0,-0.0009320789249613881,0.0002663082559593022
1772514971832277200,7.98727734375,-0.0010652330238372087,-0.0009320789249613881,-0.0007989247678779066
1772514971842324500,7.997324462890625,0,-0.0009320789249613881,0.0002663082559593022
1772514971852371500,8.007371337890625,0.0010652330238372087,-0.001997311832383275,-0.0007989247678779066
1772514971862418400,8.01741845703125,0,0.0001331541279796511,-0.0007989247678779066
1772514971872465200,8.027465087890626,0,0.0001331541279796511,0.0002663082559593022
1772514971882515000,8.037514892578125,-0.0010652330238372087,0.0001331541279796511,0.00133154122158885
1772514971892562200,8.047562255859376,0,-0.0009320789249613881,0.00133154122158885
1772514971902604300,8.057604248046875,-0.0010652330238372087,0.0011983871227130294,0.0002663082559593022
1772514971912651000,8.067651123046875,0,-0.0009320789249613881,-0.0007989247678779066
1772514971922696400,8.077696533203126,0.0010652330238372087,0.0001331541279796511,0.0002663082559593022
1772514971932743000,8.087742919921874,-0.0010652330238372087,0.0001331541279796511,-0.0007989247678779066
1772514971942770700,8.097770751953124,0,0.0001331541279796511,0.0002663082559593022
1772514971952815400,8.1078154296875,0,-0.0009320789249613881,0.0002663082559593022
1772514971962885600,8.1178857421875,0,-0.0009320789249613881,0.0002663082559593022
1772514971972932900,8.127932861328125,-0.0010652330238372087,0.0001331541279796511,0.0002663082559593022
1772514971982977800,8.137977783203125,0.0010652330238372087,-0.0009320789249613881,-0.0007989247678779066
1772514971993025000,8.14802490234375,0.0021304660476744175,-0.001997311832383275,0.0002663082559593022
1772514972003074000,8.158073974609374,0,-0.0009320789249613881,0.00133154122158885
1772514972013121500,8.16812158203125,0,0.0011983871227130294,0.0002663082559593022
1772514972023167200,8.178167236328125,0,0.0001331541279796511,0.0002663082559593022
1772514972033214500,8.18821435546875,-0.0010652330238372087,-0.0009320789249613881,0.00133154122158885
1772514972043260700,8.1982607421875,0,0.0001331541279796511,0.00133154122158885
1772514972053307600,8.2083076171875,0,0.0001331541279796511,-0.0007989247678779066
1772514972063356200,8.218356201171876,-0.0021304660476744175,0.0001331541279796511,0.0002663082559593022
1772514972073403100,8.228403076171874,0,0.0001331541279796511,0.0002663082559593022
1772514972083450000,8.2384501953125,0,0.0001331541279796511,-0.0007989247678779066
1772514972093497000,8.2484970703125,0.0010652330238372087,0.0011983871227130294,-0.0007989247678779066
1772514972103545600,8.258545654296874,0.0021304660476744175,0.0011983871227130294,-0.0007989247678779066
1772514972113592800,8.2685927734375,0,0.0001331541279796511,-0.0018641578499227762
1772514972123636500,8.278636474609375,-0.0010652330238372087,-0.0009320789249613881,0.0002663082559593022
1772514972133683200,8.28868310546875,0,-0.0009320789249613881,0.0002663082559593022
1772514972143727400,8.298727294921875,-0.0010652330238372087,-0.0009320789249613881,-0.0007989247678779066
1772514972153774000,8.308774169921875,0,-0.0009320789249613881,-0.0007989247678779066
1772514972163827000,8.318826904296875,0,0.0001331541279796511,0.0002663082559593022
1772514972173874200,8.328874267578126,0.0010652330238372087,-0.0009320789249613881,-0.0007989247678779066
1772514972183916500,8.33891650390625,0,-0.0009320789249613881,0.0002663082559593022
1772514972193963300,8.34896337890625,0,0.0011983871227130294,0.0002663082559593022
1772514972204015400,8.359015380859375,-0.0010652330238372087,-0.0009320789249613881,0.0002663082559593022
1772514972214062600,8.3690625,0,-0.0009320789249613881,0.0002663082559593022
1772514972234152200,8.389152099609374,-0.0010652330238372087,0.0011983871227130294,0.00133154122158885
1772514972244203800,8.399203857421876,0,0.0011983871227130294,-0.0007989247678779066
1772514972254251000,8.4092509765625,0,0.0001331541279796511,0.00133154122158885
1772514972264297200,8.419297119140625,0,-0.0009320789249613881,-0.0007989247678779066
1772514972274344400,8.429344482421875,-0.0010652330238372087,0.0001331541279796511,-0.0018641578499227762
1772514972284391400,8.439391357421876,-0.0010652330238372087,0.0001331541279796511,0.0002663082559593022
1772514972294438400,8.4494384765625,0.0010652330238372087,0.0001331541279796511,0.0002663082559593022
1772514972304483800,8.45948388671875,0.0010652330238372087,-0.0009320789249613881,0.0002663082559593022
1772514972314530800,8.46953076171875,0,-0.0009320789249613881,0.0002663082559593022
1772514972324579300,8.479579345703126,0,-0.0009320789249613881,-0.0007989247678779066
1772514972334626600,8.48962646484375,0,0.0001331541279796511,-0.0007989247678779066
1772514972344688000,8.499688232421875,-0.0010652330238372087,0.0001331541279796511,-0.0007989247678779066
1772514972354736600,8.509736572265625,-0.0010652330238372087,-0.0009320789249613881,-0.0007989247678779066
1772514972364768300,8.519768310546874,0,0.0001331541279796511,-0.0007989247678779066
1772514972374815200,8.529815185546875,0,0.0001331541279796511,0.0002663082559593022
1772514972384859400,8.539859375,-0.0010652330238372087,0.0001331541279796511,0.00133154122158885
1772514972394906000,8.549906005859375,0,0.0001331541279796511,0.0002663082559593022
1772514972404939500,8.559939453125,-0.0010652330238372087,0.0001331541279796511,0.0002663082559593022
1772514972414984700,8.569984619140625,0,0.0001331541279796511,-0.0007989247678779066
1772514972425049900,8.5800498046875,0.0021304660476744175,0.0011983871227130294,-0.0007989247678779066
1772514972435097000,8.59009716796875,0,-0.0009320789249613881,-0.0007989247678779066
1772514972445141500,8.6001416015625,0,0.0001331541279796511,0.0002663082559593022
1772514972455188500,8.6101884765625,0,0.0001331541279796511,0.00133154122158885
1772514972465263600,8.620263671875,0.0010652330238372087,0.0001331541279796511,0.0002663082559593022
1772514972475313700,8.630313720703125,0,0.0011983871227130294,0.0002663082559593022
1772514972485328100,8.640328125,0,0.0001331541279796511,0.0002663082559593022
1772514972495374300,8.650374267578124,0.0010652330238372087,-0.0009320789249613881,0.00133154122158885
1772514972505426000,8.660426025390626,0.0010652330238372087,0.0011983871227130294,-0.0007989247678779066
1772514972515472600,8.67047265625,0,0.0001331541279796511,0.0002663082559593022
1772514972525522400,8.6805224609375,0,0.0001331541279796511,-0.0007989247678779066
1772514972535569700,8.690569580078124,0,0.0001331541279796511,0.0002663082559593022
1772514972545612300,8.7006123046875,0.0021304660476744175,-0.0009320789249613881,0.0002663082559593022
1772514972555659000,8.710658935546874,0.0010652330238372087,0.0001331541279796511,0.0002663082559593022
1772514972565704400,8.720704345703124,-0.0021304660476744175,0.0001331541279796511,0.0002663082559593022
1772514972575751200,8.730751220703125,-0.0010652330238372087,0.00226362026296556,0.00133154122158885
1772514972585801000,8.740801025390626,0,0.0001331541279796511,-0.0007989247678779066
1772514972595847700,8.75084765625,0.0010652330238372087,-0.001997311832383275,-0.0007989247678779066
1772514972605894100,8.76089404296875,0,0.0001331541279796511,-0.0007989247678779066
1772514972615941000,8.770941162109375,0,0.0011983871227130294,-0.0007989247678779066
1772514972625988600,8.780988525390624,0.0010652330238372087,-0.0009320789249613881,0.0002663082559593022
1772514972636035600,8.79103564453125,0,-0.001997311832383275,-0.0007989247678779066
1772514972646084000,8.801083984375,-0.0010652330238372087,-0.0009320789249613881,-0.0007989247678779066
1772514972656131000,8.811131103515624,0.0010652330238372087,0.0011983871227130294,0.0002663082559593022
1772514972666176300,8.82117626953125,-0.0010652330238372087,0.0011983871227130294,0.0002663082559593022
1772514972676223000,8.831222900390625,0,0.0011983871227130294,-0.0018641578499227762
1772514972686272300,8.841272216796876,0,0.0001331541279796511,-0.0007989247678779066
1772514972696319500,8.851319580078124,0,0.0001331541279796511,-0.0007989247678779066
1772514972706384600,8.861384521484375,0,0.0001331541279796511,0.0002663082559593022
1772514972716433700,8.87143359375,0.0010652330238372087,0.0001331541279796511,0.00133154122158885
1772514972726460700,8.881460693359376,0,-0.0009320789249613881,0.00133154122158885
1772514972736507400,8.89150732421875,-0.0010652330238372087,0.0001331541279796511,-0.0007989247678779066
1772514972746551000,8.901551025390624,0.0010652330238372087,-0.0009320789249613881,0.0002663082559593022
1772514972756597500,8.911597412109375,0,-0.0009320789249613881,-0.0007989247678779066
1772514972766645200,8.921645263671875,0,0.0001331541279796511,0.0002663082559593022
1772514972776692000,8.93169189453125,0.0010652330238372087,0.0011983871227130294,0.0002663082559593022
1772514972786737200,8.941737060546876,0.0010652330238372087,-0.001997311832383275,-0.0007989247678779066
1772514972796783600,8.95178369140625,0.0010652330238372087,0.0001331541279796511,0.0002663082559593022
1772514972806834000,8.961833984375,0,0.0001331541279796511,-0.0007989247678779066
1772514972816880600,8.971880615234374,0.0010652330238372087,-0.0009320789249613881,-0.0007989247678779066
1772514972826926800,8.9819267578125,0.0010652330238372087,-0.0009320789249613881,0.0002663082559593022
1772514972836973600,8.9919736328125,0,-0.001997311832383275,-0.0007989247678779066
1772514972847004000,9.00200390625,0,-0.0009320789249613881,0.0002663082559593022
1772514972857049000,9.012049072265626,-0.0010652330238372087,0.0001331541279796511,0.0002663082559593022
1772514972867108900,9.02210888671875,-0.0010652330238372087,0.0001331541279796511,-0.0007989247678779066
1772514972877155300,9.0321552734375,0,0.0011983871227130294,0.0002663082559593022
1772514972887209200,9.042209228515626,0.0010652330238372087,0.0001331541279796511,-0.0007989247678779066
1772514972897256400,9.05225634765625,-0.0010652330238372087,0.0001331541279796511,0.00133154122158885
1772514972907300600,9.062300537109374,0,0.0011983871227130294,0.0002663082559593022
1772514972917347600,9.07234765625,0,0.0001331541279796511,-0.0007989247678779066
1772514972927398400,9.0823984375,-0.0010652330238372087,0.0001331541279796511,-0.0007989247678779066
1772514972937446000,9.09244580078125,-0.0010652330238372087,0.0011983871227130294,0.0002663082559593022
1772514972947491000,9.102490966796875,-0.0021304660476744175,0.0011983871227130294,0.00133154122158885
1772514972957538000,9.1125380859375,-0.0010652330238372087,0.0001331541279796511,0.0002663082559593022
1772514972967587300,9.12258740234375,0,0.0001331541279796511,0.0002663082559593022
1772514972977634800,9.132634765625,0,0.0001331541279796511,-0.0007989247678779066
1772514972987680800,9.1426806640625,-0.0010652330238372087,0.0011983871227130294,0.0002663082559593022
1772514972997728000,9.15272802734375,0,0.0001331541279796511,0.00133154122158885
1772514973007770400,9.162770263671876,0.0010652330238372087,-0.0009320789249613881,-0.0007989247678779066
1772514973017817000,9.172817138671874,0,-0.0009320789249613881,-0.0007989247678779066
1772514973027870000,9.182869873046876,-0.0010652330238372087,0.0011983871227130294,-0.0007989247678779066
1772514973037917200,9.192917236328125,0,0.0011983871227130294,0.0002663082559593022
1772514973047963100,9.202963134765625,0,-0.0009320789249613881,0.0002663082559593022
1772514973058010400,9.21301025390625,-0.0021304660476744175,0.0001331541279796511,-0.0007989247678779066
1772514973068058400,9.223058349609374,-0.0021304660476744175,0.0001331541279796511,-0.0007989247678779066
1772514973078105600,9.233105712890625,-0.0010652330238372087,0.0001331541279796511,-0.0007989247678779066
1772514973088148700,9.243148681640625,0.0010652330238372087,-0.0009320789249613881,-0.0007989247678779066
1772514973098195500,9.253195556640625,-0.0010652330238372087,0.0001331541279796511,-0.0007989247678779066
1772514973108243200,9.2632431640625,-0.0010652330238372087,0.0011983871227130294,0.0002663082559593022
1772514973118290000,9.2732900390625,0,-0.0009320789249613881,0.0002663082559593022
1772514973128338700,9.283338623046875,0,0.0001331541279796511,0.0002663082559593022
1772514973138385700,9.2933857421875,-0.0010652330238372087,0.0001331541279796511,0.00133154122158885
1772514973148433200,9.30343310546875,0,0.0001331541279796511,0.00133154122158885
1772514973158480100,9.313480224609375,0,-0.0009320789249613881,0.00133154122158885
1772514973168523800,9.323523681640625,0,-0.001997311832383275,0.00133154122158885
1772514973178570500,9.333570556640625,0,0.0011983871227130294,0.0002663082559593022
1772514973188621300,9.343621337890625,-0.0010652330238372087,0.0001331541279796511,-0.0007989247678779066
1772514973198668500,9.35366845703125,0.0021304660476744175,0.0001331541279796511,0.0002663082559593022
1772514973208686600,9.3636865234375,0,0.00226362026296556,0.0002663082559593022
1772514973218730800,9.373730712890625,-0.0010652330238372087,0.0011983871227130294,-0.0007989247678779066
1772514973228812000,9.38381201171875,0.0010652330238372087,0.0001331541279796511,0.0002663082559593022
1772514973238860300,9.3938603515625,0,0.0001331541279796511,-0.0007989247678779066
1772514973248903000,9.40390283203125,0.0010652330238372087,-0.0009320789249613881,0.0002663082559593022
1772514973258950700,9.41395068359375,0.0010652330238372087,0.0001331541279796511,0.00133154122158885
1772514973268996900,9.423996826171875,0.0010652330238372087,0.0001331541279796511,0.0002663082559593022
1772514973279044000,9.434044189453125,-0.0010652330238372087,0.0001331541279796511,0.0002663082559593022
1772514973289090300,9.44409033203125,-0.0010652330238372087,-0.0009320789249613881,0.0002663082559593022
1772514973299137500,9.454137451171874,-0.0010652330238372087,0.0001331541279796511,-0.0007989247678779066
1772514973309183000,9.464182861328124,0.0010652330238372087,0.0001331541279796511,-0.0007989247678779066
1772514973319230200,9.474230224609375,0.0010652330238372087,-0.0009320789249613881,0.00133154122158885
1772514973329279500,9.484279541015624,0,-0.0009320789249613881,0.0023967742454260588
1772514973339326700,9.49432666015625,-0.0010652330238372087,0.0001331541279796511,0.0002663082559593022
1772514973349374500,9.50437451171875,0.0010652330238372087,0.0001331541279796511,-0.0007989247678779066
1772514973359422000,9.514421875,0.0010652330238372087,0.0001331541279796511,-0.0007989247678779066
1772514973369467600,9.524467529296874,0,0.0011983871227130294,-0.0007989247678779066
1772514973379515000,9.534514892578125,-0.0010652330238372087,0.0011983871227130294,0.0002663082559593022
1772514973389557500,9.5445576171875,0,0.0011983871227130294,-0.0007989247678779066
1772514973399604200,9.554604248046875,-0.0010652330238372087,0.0001331541279796511,0.0002663082559593022
1772514973409702700,9.56470263671875,0.0010652330238372087,0.0011983871227130294,0.0002663082559593022
1772514973419754500,9.57475439453125,-0.0010652330238372087,0.0011983871227130294,0.00133154122158885
1772514973429760800,9.5847607421875,0,0.0011983871227130294,0.00133154122158885
1772514973439808300,9.594808349609375,0,0.0011983871227130294,-0.0007989247678779066
1772514973449845200,9.60484521484375,0,0.0011983871227130294,-0.0007989247678779066
1772514973459891500,9.614891357421875,0,0.0011983871227130294,-0.0007989247678779066
1772514973469937700,9.624937744140626,0,0.0001331541279796511,0.0002663082559593022
1772514973479983900,9.63498388671875,0,-0.0009320789249613881,0.0002663082559593022
1772514973490031400,9.64503125,0.0010652330238372087,-0.0009320789249613881,-0.0007989247678779066
1772514973500077800,9.655077880859375,0.0010652330238372087,-0.0009320789249613881,-0.0007989247678779066
1772514973510126300,9.665126220703126,0.0010652330238372087,0.0011983871227130294,-0.0018641578499227762
1772514973520172800,9.6751728515625,-0.0010652330238372087,0.0011983871227130294,0.0002663082559593022
1772514973530208300,9.685208251953124,-0.0010652330238372087,0.0001331541279796511,0.0002663082559593022
1772514973540253700,9.695253662109375,0,0.0001331541279796511,0.0002663082559593022
1772514973550314500,9.705314453125,0,-0.0009320789249613881,0.0002663082559593022
1772514973560361700,9.71536181640625,0,-0.001997311832383275,0.0002663082559593022
1772514973570408200,9.725408203125,0.0010652330238372087,0.0001331541279796511,0.0002663082559593022
1772514973580455200,9.735455078125,0,-0.0009320789249613881,-0.0018641578499227762
1772514973590501000,9.745501220703124,0.0010652330238372087,0.0011983871227130294,-0.0007989247678779066
1772514973600548000,9.755548095703125,0,0.0011983871227130294,-0.0007989247678779066
1772514973610604300,9.765604248046875,-0.0010652330238372087,-0.0009320789249613881,-0.0007989247678779066
1772514973620652000,9.775652099609376,0.0010652330238372087,0.0001331541279796511,-0.0007989247678779066
1772514973630686700,9.785686767578126,0.0010652330238372087,0.0001331541279796511,-0.0018641578499227762
1772514973640733200,9.795733154296874,0,0.0001331541279796511,0.0002663082559593022
1772514973650784500,9.805784423828126,0,0.0011983871227130294,0.00133154122158885
1772514973660831500,9.81583154296875,0,0.0001331541279796511,0.00133154122158885
1772514973670877200,9.825877197265624,0,0.0001331541279796511,-0.0018641578499227762
1772514973680924000,9.835923828125,-0.0010652330238372087,0.0001331541279796511,-0.0007989247678779066
1772514973690967300,9.84596728515625,0,0.0001331541279796511,0.00133154122158885
1772514973701013800,9.856013671875,-0.0010652330238372087,0.0011983871227130294,0.0002663082559593022
1772514973711048000,9.8660478515625,0,0.0001331541279796511,0.0002663082559593022
1772514973721093400,9.87609326171875,0,0.0001331541279796511,-0.0007989247678779066
1772514973731157200,9.8861572265625,-0.0010652330238372087,0.0001331541279796511,-0.0007989247678779066
1772514973741204500,9.89620458984375,0,0.0001331541279796511,0.0002663082559593022
1772514973751256000,9.906256103515625,-0.0010652330238372087,-0.0009320789249613881,0.0002663082559593022
1772514973761303600,9.916303466796874,-0.0010652330238372087,-0.0009320789249613881,-0.0007989247678779066
1772514973771347000,9.926346923828126,0,0.0001331541279796511,-0.0007989247678779066
1772514973781394000,9.936393798828124,0.0010652330238372087,0.0001331541279796511,0.0002663082559593022
1772514973791441000,9.94644091796875,0,0.0001331541279796511,0.0002663082559593022
1772514973801488000,9.95648779296875,0,0.0001331541279796511,-0.0007989247678779066
1772514973811545900,9.9665458984375,0,0.0001331541279796511,-0.0007989247678779066
1772514973821594000,9.976593994140625,0,0.0011983871227130294,-0.0007989247678779066
1772514973831639800,9.986639892578125,0,0.0011983871227130294,0.0002663082559593022
1772514973841687800,9.996687744140624,0.0010652330238372087,0.0011983871227130294,-0.0007989247678779066
1772514973851718400,10.006718505859375,0,0.0001331541279796511,-0.0007989247678779066
1772514973861764600,10.0167646484375,0.0010652330238372087,0.0011983871227130294,0.00133154122158885
1772514973871814100,10.026814208984375,0,0.0001331541279796511,0.0002663082559593022
1772514973881860600,10.036860595703125,0,0.0011983871227130294,-0.0018641578499227762
1772514973891912700,10.04691259765625,0.0010652330238372087,0.0001331541279796511,-0.0007989247678779066
1772514973901960000,10.0569599609375,0.0010652330238372087,-0.0009320789249613881,0.0002663082559593022
1772514973912005400,10.06700537109375,0,0.0001331541279796511,0.0002663082559593022
1772514973922052400,10.07705224609375,-0.0010652330238372087,-0.0009320789249613881,0.0002663082559593022
1772514973932100000,10.08710009765625,0.0010652330238372087,-0.001997311832383275,-0.0007989247678779066
1772514973942147000,10.09714697265625,0,0.0001331541279796511,0.0002663082559593022
1772514973952175000,10.107175048828125,0,0.0011983871227130294,0.00133154122158885
1772514973962220300,10.11722021484375,0,0.0001331541279796511,-0.0007989247678779066
1772514973972278000,10.127278076171875,0,0.0001331541279796511,0.0002663082559593022
1772514973982324500,10.137324462890625,-0.0010652330238372087,0.0011983871227130294,0.0002663082559593022
1772514973992383500,10.147383544921874,-0.0010652330238372087,-0.0009320789249613881,0.00133154122158885
1772514974002431200,10.15743115234375,0.0010652330238372087,0.0001331541279796511,0.00133154122158885
1772514974012474600,10.167474609375,0,0.0011983871227130294,0.00133154122158885
1772514974022522000,10.177522216796875,-0.0010652330238372087,0.0001331541279796511,0.0002663082559593022
1772514974032551700,10.1875517578125,0,0.0011983871227130294,0.0002663082559593022
1772514974042597000,10.19759716796875,0.0010652330238372087,-0.0009320789249613881,0.0002663082559593022
1772514974052677000,10.207677001953124,0,0.0011983871227130294,-0.0007989247678779066
1772514974062726000,10.217725830078125,0,0.0001331541279796511,0.00133154122158885
1772514974072759600,10.227759521484375,-0.0010652330238372087,-0.0009320789249613881,0.0023967742454260588
1772514974082806800,10.237806884765625,0,0.0001331541279796511,0.0002663082559593022
1772514974092852500,10.2478525390625,0,-0.0009320789249613881,-0.0007989247678779066
1772514974102899700,10.257899658203126,0,-0.0009320789249613881,0.0002663082559593022
1772514974112948500,10.267948486328125,0,-0.0009320789249613881,0.0002663082559593022
1772514974122995700,10.27799560546875,0,-0.0009320789249613881,0.0002663082559593022
1772514974133041400,10.28804150390625,0.0021304660476744175,0.0011983871227130294,-0.0007989247678779066
1772514974143088400,10.29808837890625,0.0010652330238372087,-0.0009320789249613881,-0.0018641578499227762
1772514974153131500,10.308131591796876,-0.0010652330238372087,0.0001331541279796511,-0.0007989247678779066
1772514974163178200,10.31817822265625,0,0.0001331541279796511,0.00133154122158885
1772514974173227000,10.32822705078125,-0.0010652330238372087,0.0001331541279796511,0.00133154122158885
1772514974183274000,10.33827392578125,0,0.0001331541279796511,-0.0007989247678779066
1772514974193322200,10.348322265625,0.0010652330238372087,-0.0009320789249613881,-0.0007989247678779066
1772514974203369200,10.358369140625,0,0.0001331541279796511,0.0002663082559593022
1772514974213414400,10.368414306640625,0,0.0001331541279796511,-0.0007989247678779066
1772514974223461000,10.378461181640626,0,-0.0009320789249613881,0.0002663082559593022
1772514974233505800,10.388505859375,0,0.0011983871227130294,0.00133154122158885
1772514974243552500,10.398552490234374,0.0010652330238372087,-0.0009320789249613881,0.00133154122158885
1772514974253607000,10.40860693359375,0,0.0001331541279796511,-0.0007989247678779066
1772514974263654400,10.418654296875,-0.0021304660476744175,0.0001331541279796511,-0.0007989247678779066
1772514974273695700,10.42869580078125,0,0.0001331541279796511,0.0002663082559593022
1772514974283742500,10.438742431640625,0.0010652330238372087,0.0001331541279796511,-0.0007989247678779066
1772514974293789000,10.448788818359375,0.0010652330238372087,0.0011983871227130294,-0.0007989247678779066
1772514974303835600,10.458835693359376,0,-0.0009320789249613881,-0.0007989247678779066
1772514974313887700,10.4688876953125,0.0010652330238372087,-0.0009320789249613881,-0.0007989247678779066
1772514974323935000,10.47893505859375,0,0.0011983871227130294,0.0002663082559593022
1772514974333971700,10.4889716796875,-0.0010652330238372087,-0.0009320789249613881,0.0002663082559593022
1772514974344018000,10.499017822265625,0,0.0001331541279796511,-0.0007989247678779066
1772514974354075400,10.509075439453126,-0.0010652330238372087,-0.0009320789249613881,-0.0018641578499227762
1772514974364123000,10.519122802734374,0,-0.0009320789249613881,-0.0007989247678779066
1772514974374168000,10.52916796875,0,0.0001331541279796511,0.00133154122158885
1772514974384215300,10.53921533203125,0.0010652330238372087,-0.0009320789249613881,0.0002663082559593022
1772514974394259500,10.549259521484375,0,0.0011983871227130294,-0.0007989247678779066
1772514974404306400,10.559306396484375,0,0.0001331541279796511,0.0002663082559593022
1772514974414357800,10.569357666015625,-0.0010652330238372087,0.0001331541279796511,0.0002663082559593022
1772514974424405000,10.579405029296876,0.0010652330238372087,0.0011983871227130294,0.0002663082559593022
1772514974434444300,10.5894443359375,0,0.0011983871227130294,0.0002663082559593022
1772514974444490800,10.59949072265625,-0.0010652330238372087,-0.0009320789249613881,0.00133154122158885
1772514974454542600,10.60954248046875,0,-0.0009320789249613881,0.0002663082559593022
1772514974464589800,10.61958984375,-0.0010652330238372087,0.0011983871227130294,-0.0007989247678779066
1772514974474620200,10.6296201171875,0,0.0011983871227130294,-0.0007989247678779066
1772514974484665600,10.63966552734375,0,0.0001331541279796511,0.0002663082559593022
1772514974494731000,10.64973095703125,0,-0.0009320789249613881,0.0023967742454260588
1772514974504778500,10.659778564453125,0,0.0001331541279796511,0.0002663082559593022
1772514974514829300,10.669829345703125,0.0021304660476744175,0.0001331541279796511,-0.0007989247678779066
1772514974524877000,10.679876953125,-0.0010652330238372087,0.0001331541279796511,-0.0007989247678779066
1772514974534920000,10.689919921875,0,0.0001331541279796511,0.0002663082559593022
1772514974544967200,10.69996728515625,0,0.0001331541279796511,-0.0007989247678779066
1772514974555009300,10.71000927734375,0,-0.0009320789249613881,0.0002663082559593022
1772514974565056000,10.720055908203125,0,0.0001331541279796511,0.00133154122158885
1772514974575107300,10.730107421875,0,0.0001331541279796511,0.0002663082559593022
1772514974585154600,10.740154541015626,0,-0.001997311832383275,0.0002663082559593022
1772514974595200000,10.750199951171876,0,0.0011983871227130294,0.0002663082559593022
1772514974605247000,10.7602470703125,-0.0010652330238372087,0.0001331541279796511,-0.0007989247678779066
1772514974615296800,10.770296875,0,-0.0009320789249613881,-0.0007989247678779066
1772514974625344000,10.780343994140624,0,0.0011983871227130294,0.0002663082559593022
1772514974635389400,10.790389404296874,0,0.0001331541279796511,-0.0007989247678779066
1772514974645436400,10.8004365234375,0,0.0011983871227130294,0.0002663082559593022
1772514974655477200,10.810477294921874,0,-0.0009320789249613881,0.0002663082559593022
1772514974665523700,10.820523681640625,0.0010652330238372087,0.0001331541279796511,-0.0007989247678779066
1772514974675616500,10.830616455078125,0,0.0001331541279796511,-0.0007989247678779066
1772514974685667600,10.84066748046875,-0.0010652330238372087,0.0011983871227130294,0.0002663082559593022
1772514974695672600,10.850672607421876,0,0.0011983871227130294,0.0002663082559593022
1772514974705719000,10.860718994140624,0.0010652330238372087,0.0001331541279796511,-0.0007989247678779066
1772514974715767000,10.87076708984375,0,0.0001331541279796511,0.00133154122158885
1772514974725813800,10.880813720703125,0,0.0011983871227130294,0.00133154122158885
1772514974735858000,10.89085791015625,0,0.0001331541279796511,-0.0007989247678779066
1772514974745904400,10.900904296875,0.0010652330238372087,0.0001331541279796511,0.00133154122158885
1772514974755955700,10.910955810546875,0,0.0001331541279796511,0.00133154122158885
1772514974766002700,10.921002685546876,0,0.0011983871227130294,-0.0007989247678779066
1772514974776048600,10.931048583984374,0,0.0011983871227130294,-0.0007989247678779066
1772514974786095600,10.941095703125,0,0.0001331541279796511,-0.0007989247678779066
1772514974796139300,10.95113916015625,0,0.0011983871227130294,-0.0007989247678779066
1772514974806185700,10.961185791015625,0.0010652330238372087,0.0001331541279796511,0.0002663082559593022
1772514974816237600,10.971237548828125,0.0010652330238372087,0.0001331541279796511,-0.0007989247678779066
1772514974826284500,10.981284423828125,0.0010652330238372087,0.0011983871227130294,-0.0007989247678779066
1772514974836330800,10.991330810546875,0,0.0001331541279796511,0.0002663082559593022
1772514974846377700,11.001377685546874,0,-0.0009320789249613881,0.0002663082559593022
1772514974856424400,11.011424560546875,0,-0.0009320789249613881,0.0002663082559593022
1772514974866471400,11.021471435546875,0,-0.0009320789249613881,0.00133154122158885
1772514974876511500,11.031511474609376,0.0010652330238372087,-0.0009320789249613881,0.0002663082559593022
1772514974886557700,11.0415576171875,0.0010652330238372087,0.0001331541279796511,-0.0018641578499227762
1772514974896615200,11.051615234375,0,0.0001331541279796511,0.0002663082559593022
1772514974906662400,11.061662353515626,-0.0010652330238372087,0.0001331541279796511,0.0002663082559593022
1772514974916729900,11.071729736328125,-0.0010652330238372087,0.00226362026296556,-0.0007989247678779066
1772514974926779100,11.081779052734374,0,0.0001331541279796511,-0.0007989247678779066
1772514974936801500,11.091801513671875,-0.0010652330238372087,-0.0009320789249613881,0.0002663082559593022
1772514974946848000,11.101847900390625,0,-0.0009320789249613881,0.00133154122158885
1772514974956907300,11.1119072265625,0,0.0001331541279796511,0.0002663082559593022
1772514974966955300,11.121955322265626,0.0010652330238372087,0.0001331541279796511,-0.0007989247678779066
1772514974976987600,11.131987548828125,0.0010652330238372087,0.0001331541279796511,0.0002663082559593022
1772514974987033900,11.142033935546875,0.0010652330238372087,0.0001331541279796511,0.0002663082559593022
1772514974997082000,11.15208203125,0.0010652330238372087,0.0001331541279796511,0.00133154122158885
1772514975007128800,11.16212890625,0.0010652330238372087,-0.0009320789249613881,-0.0007989247678779066
1772514975017173000,11.172173095703124,0.0010652330238372087,0.0001331541279796511,-0.0018641578499227762
1772514975027219200,11.18221923828125,0,0.0001331541279796511,0.0002663082559593022
1772514975037270000,11.19227001953125,0.0010652330238372087,0.0001331541279796511,0.00133154122158885
1772514975047317000,11.20231689453125,0,-0.0009320789249613881,-0.0007989247678779066
1772514975057376800,11.212376708984374,-0.0010652330238372087,0.0011983871227130294,-0.0018641578499227762
1772514975067424800,11.2224248046875,0.0010652330238372087,0.0001331541279796511,0.0002663082559593022
1772514975077472500,11.232472412109376,0,0.0001331541279796511,0.0002663082559593022
1772514975087520500,11.2425205078125,0,0.0001331541279796511,0.0002663082559593022
1772514975097542000,11.2525419921875,0,-0.001997311832383275,0.0002663082559593022
1772514975107587000,11.262587158203125,-0.0010652330238372087,-0.0009320789249613881,0.0002663082559593022
1772514975117645300,11.272645263671874,-0.0010652330238372087,-0.0009320789249613881,0.0002663082559593022
1772514975127692000,11.282692138671875,-0.0010652330238372087,0.0001331541279796511,-0.0007989247678779066
1772514975137739500,11.292739501953125,-0.0021304660476744175,0.0011983871227130294,0.0002663082559593022
1772514975147786200,11.3027861328125,-0.0010652330238372087,-0.0009320789249613881,0.0002663082559593022
1772514975157834500,11.31283447265625,0.0010652330238372087,0.0001331541279796511,0.0002663082559593022
1772514975167881200,11.322881103515625,0,0.0011983871227130294,0.00133154122158885
1772514975177895200,11.332895263671874,0,-0.0009320789249613881,-0.0007989247678779066
1772514975187938800,11.342938720703126,0,0.0011983871227130294,0.00133154122158885
1772514975198022400,11.3530224609375,0,-0.0009320789249613881,0.00133154122158885
1772514975208070000,11.36306982421875,-0.0010652330238372087,-0.001997311832383275,-0.0007989247678779066
1772514975218117600,11.37311767578125,0,0.0001331541279796511,0.0002663082559593022
1772514975228165000,11.3831650390625,0,0.0011983871227130294,0.0002663082559593022
1772514975238210300,11.393210205078125,0,0.0001331541279796511,0.0002663082559593022
1772514975248257500,11.403257568359376,-0.0010652330238372087,0.0001331541279796511,0.0002663082559593022
1772514975258311700,11.413311767578126,-0.0010652330238372087,0.0001331541279796511,-0.0007989247678779066
1772514975268359700,11.423359619140625,0.0010652330238372087,0.0001331541279796511,0.00133154122158885
1772514975278414000,11.4334140625,0.0021304660476744175,0.0001331541279796511,-0.0007989247678779066
1772514975288462600,11.443462646484376,0,-0.0009320789249613881,0.0002663082559593022
1772514975298489900,11.45348974609375,0.0010652330238372087,-0.0009320789249613881,0.00133154122158885
1772514975308536300,11.463536376953124,0,-0.0009320789249613881,0.0002663082559593022
1772514975318582000,11.47358203125,0,0.0011983871227130294,0.0002663082559593022
1772514975328628200,11.483628173828125,0,0.0001331541279796511,-0.0007989247678779066
1772514975338683000,11.493682861328125,0,0.0001331541279796511,-0.0007989247678779066
1772514975348729900,11.503729736328125,0.0021304660476744175,0.0001331541279796511,0.0002663082559593022
1772514975358772000,11.51377197265625,-0.0010652330238372087,0.0001331541279796511,0.0002663082559593022
1772514975368818700,11.523818603515625,-0.0010652330238372087,0.0011983871227130294,0.0023967742454260588
1772514975378869200,11.533869140625,0.0021304660476744175,0.0001331541279796511,0.0023967742454260588
1772514975388916200,11.543916259765625,-0.0010652330238372087,0.0011983871227130294,0.0002663082559593022
1772514975398961400,11.55396142578125,0.0010652330238372087,0.0001331541279796511,0.0002663082559593022
1772514975409008400,11.56400830078125,0,0.0001331541279796511,0.00133154122158885
1772514975419051000,11.574051025390625,0,0.00226362026296556,0.00133154122158885
1772514975429097500,11.584097412109376,0,0.0011983871227130294,0.0002663082559593022
1772514975439146800,11.594146728515625,0,0.0001331541279796511,0.00133154122158885
1772514975449193500,11.604193359375,0,0.0001331541279796511,0.0023967742454260588
1772514975459244800,11.614244873046875,-0.0010652330238372087,0.0001331541279796511,0.00133154122158885
1772514975469291800,11.624291748046875,-0.0010652330238372087,0.0001331541279796511,0.0002663082559593022
1772514975479338200,11.634338134765626,0.0010652330238372087,-0.0009320789249613881,-0.0007989247678779066
1772514975489385500,11.644385498046875,0,-0.0009320789249613881,-0.0018641578499227762
1772514975499430100,11.65443017578125,0,-0.0009320789249613881,0.0002663082559593022
1772514975509477000,11.66447705078125,0,-0.001997311832383275,-0.0007989247678779066
1772514975519520300,11.674520263671875,0,-0.0009320789249613881,0.0002663082559593022
1772514975529567000,11.68456689453125,0,-0.0009320789249613881,0.0002663082559593022
1772514975539620400,11.694620361328125,0,-0.0009320789249613881,-0.0018641578499227762
1772514975549667300,11.704667236328126,0,0.0011983871227130294,-0.0007989247678779066
1772514975559711200,11.714711181640626,0,0.0001331541279796511,-0.0007989247678779066
1772514975569758200,11.72475830078125,0.0010652330238372087,0.0001331541279796511,-0.0007989247678779066
1772514975579809000,11.73480908203125,0,-0.0009320789249613881,0.0002663082559593022
1772514975589856500,11.7448564453125,-0.0010652330238372087,0.0011983871227130294,0.0002663082559593022
1772514975599904000,11.754904052734375,-0.0010652330238372087,0.0011983871227130294,0.0002663082559593022
1772514975609951200,11.764951171875,-0.0010652330238372087,0.0001331541279796511,0.0002663082559593022
1772514975619993600,11.77499365234375,0.0010652330238372087,0.0011983871227130294,0.0002663082559593022
1772514975630040600,11.78504052734375,0.0010652330238372087,0.0001331541279796511,-0.0007989247678779066
1772514975640089000,11.795089111328124,0,0.0001331541279796511,0.0002663082559593022
1772514975650136000,11.805135986328125,0,0.0011983871227130294,0.00133154122158885
1772514975660182300,11.815182373046875,-0.0010652330238372087,0.0001331541279796511,0.0002663082559593022
1772514975670229200,11.825229248046876,-0.0010652330238372087,0.0011983871227130294,0.0002663082559593022
1772514975680274700,11.835274658203126,0.0010652330238372087,0.0011983871227130294,0.0002663082559593022
1772514975690321400,11.8453212890625,0.0010652330238372087,0.0011983871227130294,0.0002663082559593022
1772514975700375800,11.855375732421875,0,0.0011983871227130294,0.0002663082559593022
1772514975710423600,11.865423583984375,0,0.0001331541279796511,0.0002663082559593022
1772514975720495900,11.875495849609376,0,0.0011983871227130294,-0.0007989247678779066
1772514975730546000,11.8855458984375,0,0.0011983871227130294,-0.0007989247678779066
1772514975740559000,11.89555908203125,-0.0010652330238372087,0.0001331541279796511,-0.0007989247678779066
1772514975750605300,11.905605224609374,0,0.0001331541279796511,0.0002663082559593022
1772514975760652800,11.91565283203125,0,0.0011983871227130294,0.0002663082559593022
1772514975770699000,11.925698974609375,0,0.0001331541279796511,0.0002663082559593022
1772514975780757500,11.935757568359374,-0.0010652330238372087,-0.0009320789249613881,0.0002663082559593022
1772514975790805200,11.94580517578125,0,-0.0009320789249613881,0.0002663082559593022
1772514975800823300,11.9558232421875,0,-0.0009320789249613881,0.0002663082559593022
1772514975810867700,11.96586767578125,0,-0.0009320789249613881,-0.0007989247678779066
1772514975820934700,11.9759345703125,0,0.0001331541279796511,0.00133154122158885
1772514975830981400,11.9859814453125,-0.0010652330238372087,0.0011983871227130294,0.00133154122158885
1772514975841031700,11.99603173828125,0,0.0011983871227130294,0.0002663082559593022
1772514975851079000,12.006078857421874,0.0010652330238372087,0.0001331541279796511,0.0002663082559593022
1772514975861120500,12.01612060546875,0,0.0011983871227130294,0.0002663082559593022
1772514975871167200,12.026167236328124,0,-0.0009320789249613881,-0.0007989247678779066
1772514975881215500,12.036215576171875,0,0.0011983871227130294,-0.0007989247678779066
1772514975891262500,12.046262451171875,0,0.0011983871227130294,0.00133154122158885
1772514975901310700,12.056310791015624,0,-0.0009320789249613881,-0.0007989247678779066
1772514975911357700,12.066357666015625,0,0.0011983871227130294,0.0002663082559593022
1772514975921417700,12.076417724609374,0,0.0001331541279796511,-0.0007989247678779066
1772514975931466000,12.086466064453125,0,0.0001331541279796511,0.00133154122158885
1772514975941493500,12.096493408203125,0,-0.0009320789249613881,-0.0007989247678779066
1772514975951539700,12.106539794921876,-0.0021304660476744175,-0.0009320789249613881,0.00133154122158885
1772514975961597000,12.116596923828125,0,-0.0009320789249613881,0.0002663082559593022
1772514975971644200,12.12664404296875,0.0010652330238372087,0.0001331541279796511,0.0002663082559593022
1772514975981690000,12.136690185546875,0.0010652330238372087,0.0011983871227130294,0.0002663082559593022
1772514975991737300,12.1467373046875,0,0.0001331541279796511,-0.0007989247678779066
1772514976001784300,12.156784423828125,0.0010652330238372087,-0.0009320789249613881,0.0002663082559593022
1772514976011831300,12.166831298828125,0,-0.0009320789249613881,0.0002663082559593022
1772514976021872400,12.176872314453124,-0.0021304660476744175,0.0001331541279796511,0.00133154122158885
1772514976031918800,12.1869189453125,-0.0010652330238372087,0.0001331541279796511,-0.0007989247678779066
1772514976041970200,12.19697021484375,0,0.0001331541279796511,0.0002663082559593022
1772514976052017200,12.20701708984375,0,0.0011983871227130294,-0.0007989247678779066
1772514976062064400,12.217064453125,0,0.00226362026296556,-0.0007989247678779066
1772514976072111600,12.227111572265626,0,0.0011983871227130294,-0.0007989247678779066
