time,seconds_elapsed,z,y,x
1772514772540463600,0.028463623046875,0,0,0
1772514772550486000,0.038486083984375,-0.2767820358276367,-0.2599680423736572,-0.1566285789012909
1772514772560528000,0.04852783203125,-0.19089412689208984,-0.46108126640319824,-0.19477486610412598
1772514772570579500,0.058579345703125,0.1433115005493164,-0.513472318649292,-0.12139424681663513
1772514772580625200,0.068625244140625,0.4807100296020508,-0.5530766248703003,-0.11125797033309937
1772514772590682600,0.0786826171875,0.6773500442504883,-0.5643950700759888,-0.12369155883789062
1772514772600733200,0.088733154296875,0.6957426071166992,-0.7367477416992188,-0.051262266933918
1772514772610757000,0.098757080078125,0.4099292755126953,-0.5777255296707153,-0.08302392810583115
1772514772620797200,0.108797119140625,0.06597328186035156,-0.5088015794754028,-0.3502736985683441
1772514772630868000,0.118867919921875,-0.37074851989746094,-0.6903278827667236,-0.8581483364105225
1772514772640920600,0.128920654296875,-0.7272958755493164,-0.21584546566009521,-0.823871910572052
1772514772711217400,0.199217529296875,0.6168422698974609,0.12339115142822266,-0.09373635053634644
1772514772731277600,0.219277587890625,0.24533843994140625,0.47251129150390625,0.09922850131988525
1772514772741333000,0.2293330078125,0.045833587646484375,0.6158723831176758,0.11525839567184448
1772514772751385600,0.239385498046875,-0.2736167907714844,1.0466337203979492,0.6970967650413513
1772514772761430000,0.249429931640625,-0.40852832794189453,1.081010103225708,1.028312087059021
1772514772781547000,0.269547119140625,-0.24497509002685547,0.8359165191650391,0.7786589860916138
1772514772791604500,0.2796044921875,-0.15922832489013672,0.8725299835205078,0.5959723591804504
1772514772801636600,0.28963671875,-0.19079113006591797,0.922421932220459,0.5236707925796509
1772514772811683800,0.299683837890625,-0.1673746109008789,0.9639644622802734,0.4702456593513489
1772514772821732000,0.309732177734375,-0.14672374725341797,0.9036858081817627,0.43993133306503296
1772514772831779800,0.31977978515625,-0.20999622344970703,0.7140247821807861,0.35635998845100403
1772514772841840000,0.329840087890625,-0.2533273696899414,0.5039026737213135,0.2721521258354187
1772514772851893000,0.33989306640625,-0.33234214782714844,0.18529081344604492,0.26686644554138184
1772514772861908000,0.349907958984375,-0.46391773223876953,-0.17045974731445312,0.3120243549346924
1772514772871945700,0.35994580078125,-0.6098423004150391,-0.4028503894805908,0.2755301892757416
1772514772882005800,0.370005859375,-0.7659921646118164,-0.5718295574188232,0.2528960406780243
1772514772892052200,0.38005224609375,-0.8686676025390625,-0.6519443988800049,0.2667711079120636
1772514772902088000,0.390087890625,-0.7872676849365234,-0.5909106731414795,0.3218833804130554
1772514772912130000,0.400130126953125,-0.6575860977172852,-0.5084154605865479,0.3733695149421692
1772514772922184400,0.410184326171875,-0.6512784957885742,-0.5806028842926025,0.3530787229537964
1772514772932231700,0.420231689453125,-0.7314958572387695,-0.6958444118499756,0.1601853370666504
1772514772942282200,0.4302822265625,-0.8313541412353516,-0.6154289245605469,-0.1124429702758789
1772514772952330800,0.440330810546875,-0.9004001617431641,-0.46367359161376953,-0.09255509078502655
1772514772962397700,0.450397705078125,-0.9491348266601562,-0.39035725593566895,0.20510463416576385
1772514772972448000,0.460447998046875,-1.037837028503418,-0.25528502464294434,0.3248263895511627
1772514772982489000,0.470489013671875,-1.0995311737060547,-0.09470367431640625,0.245375394821167
1772514772992538600,0.48053857421875,-1.0741052627563477,-0.0964820384979248,0.09772399067878723
1772514773002581800,0.490581787109375,-0.9637174606323242,-0.1404578685760498,-0.009298115968704224
1772514773012630500,0.500630615234375,-0.8587350845336914,-0.13750910758972168,-0.10522231459617615
1772514773022638000,0.51063818359375,-0.8048992156982422,-0.0619044303894043,-0.21165207028388977
1772514773032682800,0.520682861328125,-0.8241081237792969,0.047556161880493164,-0.2629668712615967
1772514773042733300,0.5307333984375,-0.6486778259277344,0.18128728866577148,-0.19232094287872314
1772514773052778500,0.540778564453125,-0.11495304107666016,0.24985599517822266,0.022412151098251343
1772514773062854100,0.550854248046875,0.3781909942626953,0.22330403327941895,0.14702154695987701
1772514773072902700,0.560902587890625,0.6147012710571289,0.22022223472595215,0.18490532040596008
1772514773082952700,0.57095263671875,0.6111917495727539,0.27416467666625977,0.13002823293209076
1772514773093001200,0.581001220703125,0.4525947570800781,0.3458082675933838,0.0020593388471752405
1772514773103042600,0.59104248046875,0.26774024963378906,0.39932703971862793,-0.08674655854701996
1772514773113090300,0.60109033203125,0.3511056900024414,0.4288444519042969,-0.00034611672163009644
1772514773123138800,0.611138916015625,0.6830167770385742,0.40245723724365234,0.13405945897102356
1772514773133186800,0.621186767578125,0.9593114852905273,0.3705322742462158,0.21505030989646912
1772514773143229700,0.631229736328125,1.0223779678344727,0.2980997562408447,0.13045242428779602
1772514773153277200,0.641277099609375,0.8291711807250977,0.2001349925994873,-0.0817013829946518
1772514773163304400,0.651304443359375,0.46757984161376953,0.10415434837341309,-0.25698328018188477
1772514773173350000,0.661349853515625,0.17379474639892578,0.16045141220092773,-0.31488651037216187
1772514773183397400,0.6713974609375,0.03454875946044922,0.2852323055267334,-0.2532249391078949
1772514773193443000,0.681443115234375,0.013873100280761719,0.3887016773223877,-0.18075107038021088
1772514773203495200,0.6914951171875,0.0067882537841796875,0.4975724220275879,-0.09286990761756897
1772514773213541000,0.701541015625,0.03311443328857422,0.5611066818237305,0.0038376152515411377
1772514773223585300,0.711585205078125,-0.0008802413940429688,0.563234806060791,0.056886136531829834
1772514773233631500,0.721631591796875,-0.06995391845703125,0.5972316265106201,0.023127645254135132
1772514773243687700,0.731687744140625,-0.14957427978515625,0.6193211078643799,-0.014034867286682129
1772514773253734700,0.741734619140625,-0.24443721771240234,0.5454216003417969,-0.09647870063781738
1772514773263766800,0.751766845703125,-0.3270130157470703,0.4362061023712158,-0.2211625725030899
1772514773273812200,0.761812255859375,-0.33785057067871094,0.28212642669677734,-0.3833952844142914
1772514773283873800,0.771873779296875,-0.31748390197753906,0.15864086151123047,-0.5871794819831848
1772514773293920800,0.781920654296875,-0.34765052795410156,0.20005249977111816,-0.7214219570159912
1772514773303967500,0.791967529296875,-0.25324440002441406,0.31499624252319336,-0.7100887894630432
1772514773314014700,0.8020146484375,-0.06351661682128906,0.4015021324157715,-0.55060213804245
1772514773324057900,0.812057861328125,0.28299713134765625,0.45603322982788086,-0.31339195370674133
1772514773334104600,0.8221044921875,0.4366168975830078,0.4934074878692627,-0.0666370689868927
1772514773344157200,0.8321572265625,0.31673336029052734,0.46733641624450684,0.12605562806129456
1772514773354204400,0.842204345703125,0.29572105407714844,0.32640933990478516,0.21734336018562317
1772514773364231000,0.85223095703125,0.3432331085205078,0.10240912437438965,0.15656334161758423
1772514773374276400,0.8622763671875,0.2870912551879883,-0.12525129318237305,0.06673651933670044
1772514773384324400,0.872324462890625,0.20717525482177734,-0.25774335861206055,0.0818747878074646
1772514773394369800,0.882369873046875,0.1636972427368164,-0.3824961185455322,0.07251539826393127
1772514773404415500,0.89241552734375,0.11332893371582031,-0.5555510520935059,0.0015986859798431396
1772514773414461200,0.902461181640625,0.20847797393798828,-0.5567007064819336,-0.09760579466819763
1772514773424509400,0.912509521484375,0.1741170883178711,-0.518409252166748,-0.1682640165090561
1772514773434555400,0.922555419921875,0.17316246032714844,-0.5938849449157715,-0.14514724910259247
1772514773444601600,0.9326015625,0.06871891021728516,-0.6795303821563721,-0.019579291343688965
1772514773454647600,0.9426474609375,-0.0007905960083007812,-0.6760857105255127,0.14195457100868225
1772514773464694300,0.9526943359375,0.10637187957763672,-0.6231272220611572,0.2989234924316406
1772514773474740200,0.962740234375,0.02482318878173828,-0.5854408740997314,0.4692111611366272
1772514773484789200,0.972789306640625,-0.3185396194458008,-0.596879243850708,0.5191131830215454
1772514773494835500,0.98283544921875,-0.46750450134277344,-0.6346757411956787,0.4463574290275574
1772514773504880000,0.992880126953125,-0.5388450622558594,-0.8143463134765625,0.290884792804718
1772514773514926300,1.00292626953125,-0.6194267272949219,-1.0707542896270752,0.12805956602096558
1772514773524987600,1.012987548828125,-0.6389236450195312,-1.296747088432312,-0.05519628897309303
1772514773535035400,1.023035400390625,-0.669367790222168,-1.434893012046814,-0.17881320416927338
1772514773545075200,1.0330751953125,-0.6775999069213867,-1.4858366250991821,-0.2486104965209961
1772514773555122200,1.0431220703125,-0.7393922805786133,-1.4464305639266968,-0.2761427164077759
1772514773565166600,1.05316650390625,-0.6500740051269531,-1.3852726221084595,-0.180161714553833
1772514773575213300,1.06321337890625,-0.41034698486328125,-1.2296515703201294,0.06483398377895355
1772514773585259800,1.073259765625,-0.27641868591308594,-1.0457346439361572,0.3313685953617096
1772514773595306500,1.083306396484375,-0.3270101547241211,-0.9022302627563477,0.4841330051422119
1772514773605339000,1.0933388671875,-0.4275941848754883,-0.7511858940124512,0.5513448715209961
1772514773615384000,1.103384033203125,-0.4788389205932617,-0.6142787933349609,0.5755715370178223
1772514773625435400,1.113435302734375,-0.4488391876220703,-0.6074683666229248,0.533840537071228
1772514773635481000,1.123481201171875,-0.43850231170654297,-0.647101879119873,0.4896654486656189
1772514773645538800,1.133538818359375,-0.434051513671875,-0.6501097679138184,0.5165796875953674
1772514773655586000,1.1435859375,-0.3460674285888672,-0.6383388042449951,0.5306908488273621
1772514773665604600,1.1536044921875,-0.23740768432617188,-0.6295762062072754,0.5313450694084167
1772514773675648800,1.163648681640625,-0.06579017639160156,-0.6088106632232666,0.5128970146179199
1772514773685711400,1.17371142578125,0.1258678436279297,-0.633878231048584,0.4481824040412903
1772514773695757300,1.18375732421875,0.21502685546875,-0.6642224788665771,0.35000139474868774
1772514773705802800,1.193802734375,0.26036834716796875,-0.7115354537963867,0.270324170589447
1772514773715848700,1.2038486328125,0.3530254364013672,-0.7301633358001709,0.23729857802391052
1772514773725898800,1.213898681640625,0.2652597427368164,-0.7217347621917725,0.2600856125354767
1772514773735945200,1.2239453125,0.23538875579833984,-0.7084817886352539,0.2762557864189148
1772514773746002000,1.234001953125,0.2907066345214844,-0.745177149772644,0.30032092332839966
1772514773756049200,1.244049072265625,0.25002479553222656,-0.8069218397140503,0.33550524711608887
1772514773766078000,1.254077880859375,0.17547035217285156,-0.8014050722122192,0.3600872755050659
1772514773776123400,1.264123291015625,0.20444965362548828,-0.7933229207992554,0.3600305914878845
1772514773786191600,1.274191650390625,0.32209300994873047,-0.8068066835403442,0.3214181959629059
1772514773796239600,1.284239501953125,0.42880821228027344,-0.811010479927063,0.25389012694358826
1772514773806266400,1.294266357421875,0.5633716583251953,-0.8418223857879639,0.11260750889778137
1772514773816312000,1.30431201171875,0.6456661224365234,-0.8835999965667725,-0.07110178470611572
1772514773826359000,1.314359130859375,0.5296220779418945,-0.8448243141174316,-0.1853846311569214
1772514773836405000,1.324405029296875,0.46367740631103516,-0.7273445129394531,-0.24444210529327393
1772514773846463200,1.334463134765625,0.3571443557739258,-0.5946922302246094,-0.2788667678833008
1772514773856510200,1.34451025390625,0.19116687774658203,-0.4229243993759155,-0.24955594539642334
1772514773866544600,1.354544677734375,0.07975387573242188,-0.22029244899749756,-0.09940850734710693
1772514773876590600,1.364590576171875,0.08856773376464844,0.07137048244476318,0.052167534828186035
1772514773886654700,1.37465478515625,0.1262674331665039,0.34228944778442383,0.19489803910255432
1772514773896702500,1.384702392578125,0.08340644836425781,0.487942099571228,0.3526053726673126
1772514773906731500,1.3947314453125,-0.044280052185058594,0.6146566867828369,0.4871354103088379
1772514773916777200,1.404777099609375,0.009360313415527344,0.8241962194442749,0.618639349937439
1772514773926859800,1.41485986328125,-0.00353240966796875,1.0157299041748047,0.7172911167144775
1772514773936909300,1.424909423828125,-0.0018329620361328125,1.1055859327316284,0.7580983638763428
1772514773946927900,1.434927978515625,-0.1378631591796875,1.0577354431152344,0.7623350620269775
1772514773956974000,1.44497412109375,-0.08784198760986328,1.0645627975463867,0.661080539226532
1772514773966988800,1.45498876953125,-0.17591094970703125,1.0199172496795654,0.5501464605331421
1772514773977032000,1.465031982421875,-0.14471912384033203,1.0195684432983398,0.4845592975616455
1772514773987116500,1.475116455078125,0.2614936828613281,1.076672077178955,0.43761104345321655
1772514773997164000,1.4851640625,0.6086454391479492,1.1101378202438354,0.45721161365509033
1772514774007206000,1.495205810546875,0.8171024322509766,1.0411163568496704,0.47287440299987793
1772514774017252600,1.505252685546875,0.8691177368164062,0.8792117834091187,0.42179185152053833
1772514774027282000,1.515281982421875,0.6947422027587891,0.8190821409225464,0.2717300057411194
1772514774037326800,1.525326904296875,0.55645751953125,0.9055523872375488,0.157918781042099
1772514774047388400,1.535388427734375,0.5910577774047852,0.9180819988250732,0.12620510160923004
1772514774057435100,1.54543505859375,0.5592765808105469,0.8060097694396973,0.11134600639343262
1772514774067466500,1.555466552734375,0.4709482192993164,0.608396053314209,0.11006923019886017
1772514774077511700,1.56551171875,0.5503578186035156,0.6380996704101562,0.21385468542575836
1772514774087563300,1.575563232421875,0.7397871017456055,0.6729235649108887,0.3197008967399597
1772514774097609200,1.585609130859375,0.8629550933837891,0.6249110698699951,0.4016071557998657
1772514774107667700,1.595667724609375,0.758814811706543,0.5746655464172363,0.423906147480011
1772514774117715000,1.60571484375,0.5571517944335938,0.48055458068847656,0.39027833938598633
1772514774127753500,1.61575341796875,0.2964010238647461,0.43426060676574707,0.37506601214408875
1772514774137799700,1.625799560546875,0.12399005889892578,0.4712193012237549,0.35900774598121643
1772514774147823000,1.635822998046875,0.024290084838867188,0.441784143447876,0.31808900833129883
1772514774157867000,1.645866943359375,-0.09920024871826172,0.2683882713317871,0.23692137002944946
1772514774167949800,1.65594970703125,-0.3184652328491211,0.13971471786499023,0.12467631697654724
1772514774177997600,1.66599755859375,-0.5150432586669922,0.09277176856994629,-0.07854391634464264
1772514774188039400,1.676039306640625,-0.22333621978759766,0.12423348426818848,-0.21385127305984497
1772514774198086700,1.686086669921875,0.4305238723754883,0.1307203769683838,-0.16640014946460724
1772514774208135200,1.69613525390625,0.9800338745117188,0.10496377944946289,0.010768234729766846
1772514774218182400,1.706182373046875,1.3189001083374023,0.26274967193603516,0.18649822473526
1772514774228225800,1.716225830078125,1.3643779754638672,0.4935321807861328,0.11505460739135742
1772514774238272800,1.726272705078125,1.1092424392700195,0.6342849731445312,-0.20174069702625275
1772514774248321000,1.736321044921875,0.6356773376464844,0.64520263671875,-0.5134704113006592
1772514774258368000,1.746367919921875,0.2719583511352539,0.6792442798614502,-0.6807339191436768
1772514774268376000,1.7563759765625,0.05388355255126953,0.7745459079742432,-0.6862543821334839
1772514774278419200,1.766419189453125,-0.1689767837524414,0.7893781661987305,-0.5348556041717529
1772514774288502800,1.776502685546875,-0.21361351013183594,0.7270231246948242,-0.2836688160896301
1772514774298550000,1.786550048828125,-0.09259891510009766,0.5740714073181152,0.0672226995229721
1772514774308596200,1.79659619140625,0.24945354461669922,0.31355929374694824,0.4680345952510834
1772514774318643500,1.8066435546875,0.8878879547119141,0.039665937423706055,0.9326025247573853
1772514774328678400,1.816678466796875,1.7797632217407227,-0.2997610569000244,1.3195266723632812
1772514774338724000,1.82672412109375,2.7171688079833984,-0.7512047290802002,1.5772496461868286
1772514774348781300,1.83678125,3.0463485717773438,-1.224746584892273,1.5442079305648804
1772514774358828500,1.84682861328125,2.5777416229248047,-1.584337592124939,1.2789503335952759
1772514774368858400,1.8568583984375,2.131117820739746,-1.682063102722168,1.0657713413238525
1772514774378903800,1.86690380859375,1.165104866027832,-1.5523651838302612,0.7203759551048279
1772514774388961000,1.8769609375,0.21451854705810547,-1.3661834001541138,0.0925680547952652
1772514774399007500,1.887007568359375,-0.27008819580078125,-1.4702314138412476,-0.20751383900642395
1772514774409052400,1.897052490234375,-0.8533515930175781,-1.6817387342453003,-0.1334383636713028
1772514774419098600,1.9070986328125,-1.2644405364990234,-1.6161588430404663,-0.05471563711762428
1772514774429134300,1.91713427734375,-1.3910274505615234,-1.3676073551177979,0.05609341338276863
1772514774439179500,1.927179443359375,-1.6066598892211914,-1.2593011856079102,0.2565148174762726
1772514774449226800,1.937226806640625,-1.807051658630371,-1.259251356124878,0.4221840500831604
1772514774459272200,1.947272216796875,-1.9839696884155273,-1.1876344680786133,0.47995859384536743
1772514774469321700,1.95732177734375,-1.9673566818237305,-1.099055290222168,0.44008103013038635
1772514774479367700,1.96736767578125,-1.8968210220336914,-1.0928747653961182,0.34942978620529175
1772514774489423000,1.977423095703125,-1.811025619506836,-1.101621150970459,0.20255713164806366
1772514774499470000,1.987469970703125,-1.481461524963379,-1.1111149787902832,0.03922944515943527
1772514774509506600,1.997506591796875,-1.161259651184082,-1.161041498184204,-0.055181607604026794
1772514774519552300,2.00755224609375,-0.8974084854125977,-1.2622051239013672,-0.09930729120969772
1772514774529600000,2.01760009765625,-0.7224884033203125,-1.2963130474090576,-0.09951023757457733
1772514774539646000,2.02764599609375,-0.6025590896606445,-1.249631643295288,-0.15677779912948608
1772514774549692400,2.0376923828125,-0.43291664123535156,-1.250133752822876,-0.15653936564922333
1772514774559738400,2.04773828125,-0.1903543472290039,-1.2442107200622559,-0.07417179644107819
1772514774569785000,2.05778515625,0.09597969055175781,-1.26011061668396,0.027358204126358032
1772514774579831000,2.0678310546875,0.2928180694580078,-1.2511696815490723,0.13804486393928528
1772514774589890000,2.07789013671875,0.4434938430786133,-1.1892399787902832,0.27110394835472107
1772514774599937500,2.0879375,0.5438222885131836,-1.166194200515747,0.3000095784664154
1772514774609969700,2.0979697265625,0.5804367065429688,-1.2501842975616455,0.22022098302841187
1772514774620015600,2.108015625,0.6019515991210938,-1.3324840068817139,0.11092028021812439
1772514774630061300,2.118061279296875,0.6187353134155273,-1.395766019821167,-0.053885817527770996
1772514774640107000,2.12810693359375,0.6552877426147461,-1.4607633352279663,-0.18968090415000916
1772514774650154800,2.13815478515625,0.7789936065673828,-1.4817754030227661,-0.2511725425720215
1772514774660200700,2.14820068359375,0.6904535293579102,-1.4720247983932495,-0.33337119221687317
1772514774670247400,2.158247314453125,0.3771505355834961,-1.4290446043014526,-0.41279473900794983
1772514774680293600,2.168293701171875,-0.05049896240234375,-1.3091747760772705,-0.5127895474433899
1772514774690339000,2.178339111328125,-0.49767494201660156,-1.0954875946044922,-0.5704224109649658
1772514774700385300,2.18838525390625,-0.7606525421142578,-0.9087333679199219,-0.5032494068145752
1772514774710426000,2.198426025390625,-0.9462318420410156,-0.7554004192352295,-0.3547772765159607
1772514774720471600,2.208471435546875,-1.0939254760742188,-0.5754406452178955,-0.17100583016872406
1772514774730526000,2.21852587890625,-1.1238231658935547,-0.380767822265625,0.04968249797821045
1772514774740572200,2.228572265625,-1.1038074493408203,-0.2317953109741211,0.35276636481285095
1772514774750619000,2.238618896484375,-0.9963531494140625,-0.09879207611083984,0.5981721878051758
1772514774760665000,2.2486650390625,-0.8019838333129883,-0.009939193725585938,0.7692781686782837
1772514774770709500,2.25870947265625,-0.4586515426635742,0.03359675407409668,0.9541773796081543
1772514774780755700,2.268755615234375,-0.03253650665283203,0.06666398048400879,1.2065565586090088
1772514774790790400,2.278790283203125,0.1915607452392578,0.13717412948608398,1.3512084484100342
1772514774800835300,2.28883544921875,0.18669986724853516,0.1951146125793457,1.2841691970825195
1772514774810894600,2.29889453125,0.05387687683105469,0.2125852108001709,1.0568286180496216
1772514774820941000,2.308941162109375,-0.006463050842285156,0.19591760635375977,0.7755088210105896
1772514774830987300,2.3189873046875,0.009896278381347656,0.14619898796081543,0.5708848834037781
1772514774841033700,2.32903369140625,0.23639583587646484,0.09125113487243652,0.5073632597923279
1772514774851082000,2.33908203125,0.4298572540283203,0.0043408870697021484,0.43661656975746155
1772514774861128700,2.349128662109375,0.42906665802001953,-0.0026438236236572266,0.3901747167110443
1772514774871176200,2.35917626953125,0.35427188873291016,0.11194372177124023,0.4160395562648773
1772514774881223000,2.369222900390625,0.2963886260986328,0.2568550109863281,0.43135347962379456
1772514774891266600,2.3792666015625,0.20787525177001953,0.3739356994628906,0.40763020515441895
1772514774901312800,2.389312744140625,-0.03966712951660156,0.4341132640838623,0.3394071161746979
1772514774911357700,2.399357666015625,-0.27902889251708984,0.5342588424682617,0.26644691824913025
1772514774921404200,2.409404052734375,-0.3773479461669922,0.5857617855072021,0.26083120703697205
1772514774931456500,2.41945654296875,-0.47849369049072266,0.5515265464782715,0.289589524269104
1772514774941503500,2.42950341796875,-0.6307964324951172,0.5390596389770508,0.24527335166931152
1772514774951543300,2.439543212890625,-0.7205162048339844,0.5131473541259766,0.22863008081912994
1772514774961589500,2.449589599609375,-0.7007923126220703,0.5090210437774658,0.2254929393529892
1772514774971637800,2.4596376953125,-0.6055202484130859,0.4838383197784424,0.2130744755268097
1772514774981684200,2.469684326171875,-0.5161247253417969,0.47600293159484863,0.2351110428571701
1772514774991741000,2.479740966796875,-0.39467334747314453,0.5147743225097656,0.33060699701309204
1772514775001788400,2.489788330078125,-0.2939872741699219,0.5481634140014648,0.4433760344982147
1772514775011845000,2.49984521484375,-0.14763450622558594,0.6154189109802246,0.522636353969574
1772514775021893400,2.509893310546875,0.010528564453125,0.6981604099273682,0.6354897022247314
1772514775031914200,2.519914306640625,0.29019641876220703,0.7342164516448975,0.8193210959434509
1772514775041960000,2.5299599609375,0.6100950241088867,0.7274806499481201,0.8798407316207886
1772514775052008000,2.540008056640625,0.9705963134765625,0.6427056789398193,0.734054446220398
1772514775062053600,2.5500537109375,1.3913965225219727,0.5251133441925049,0.5557616949081421
1772514775072101000,2.56010107421875,1.7445564270019531,0.45655035972595215,0.362717866897583
1772514775082147000,2.57014697265625,1.7359018325805664,0.3798985481262207,0.1666697859764099
1772514775092192800,2.58019287109375,1.434234619140625,0.19906997680664062,0.047670841217041016
1772514775102238700,2.59023876953125,1.1883726119995117,0.041393280029296875,-0.015598714351654053
1772514775112297700,2.600297607421875,0.9780588150024414,-0.0757761001586914,-0.00002110004425048828
1772514775122345000,2.610344970703125,0.6781110763549805,-0.10711383819580078,0.07858788967132568
1772514775132374300,2.620374267578125,0.49749088287353516,-0.13074326515197754,0.1462634801864624
1772514775142419700,2.630419677734375,0.4251880645751953,-0.2635493278503418,0.0679398775100708
1772514775152471600,2.640471435546875,0.3794898986816406,-0.44800353050231934,-0.07577693462371826
1772514775162517800,2.650517822265625,0.31302738189697266,-0.5087323188781738,-0.29362913966178894
1772514775172566300,2.660566162109375,0.24579238891601562,-0.5051846504211426,-0.5407708883285522
1772514775182612700,2.67061279296875,0.04517173767089844,-0.5063698291778564,-0.8208853006362915
1772514775192657200,2.6806572265625,-0.18300151824951172,-0.49814748764038086,-1.0104424953460693
1772514775202703400,2.690703369140625,-0.22398853302001953,-0.43696141242980957,-1.086266279220581
1772514775212758800,2.7007587890625,-0.14988040924072266,-0.4140326976776123,-1.0470584630966187
1772514775222805800,2.7108056640625,-0.032288551330566406,-0.439908504486084,-0.8810931444168091
1772514775232857000,2.720857177734375,0.1146993637084961,-0.48246145248413086,-0.6409175395965576
1772514775242904800,2.73090478515625,0.23380661010742188,-0.508807897567749,-0.3768916726112366
1772514775252950000,2.740949951171875,0.32483673095703125,-0.5277979373931885,-0.21085937321186066
1772514775262997200,2.750997314453125,0.44467639923095703,-0.6052334308624268,-0.08123502135276794
1772514775273024800,2.761024658203125,0.4306631088256836,-0.6305973529815674,0.06887093186378479
1772514775283070000,2.771070068359375,0.4208974838256836,-0.5735950469970703,0.2281249761581421
1772514775293120300,2.781120361328125,0.41471385955810547,-0.5329294204711914,0.39316749572753906
1772514775303166200,2.791166259765625,0.3498983383178711,-0.5558621883392334,0.5412993431091309
1772514775313198300,2.8011982421875,0.31252002716064453,-0.6705687046051025,0.6956268548965454
1772514775323242800,2.81124267578125,0.4409046173095703,-0.7572102546691895,0.8580809235572815
1772514775333305900,2.821305908203125,0.8068265914916992,-0.8563282489776611,1.0501770973205566
1772514775343352300,2.831352294921875,1.2965631484985352,-1.0489543676376343,1.2868764400482178
1772514775353396000,2.84139599609375,1.65863037109375,-1.28376042842865,1.4790962934494019
1772514775363442200,2.851442138671875,1.5462455749511719,-1.474086046218872,1.5325490236282349
1772514775373507000,2.861507080078125,1.0705032348632812,-1.5522563457489014,1.4648479223251343
1772514775383555300,2.871555419921875,0.4314851760864258,-1.5464348793029785,1.381551742553711
1772514775393578800,2.881578857421875,-0.12412166595458984,-1.4882266521453857,1.3199305534362793
1772514775403624400,2.89162451171875,-0.5933828353881836,-1.4155739545822144,1.3119724988937378
1772514775413689600,2.901689697265625,-0.8105344772338867,-1.3014389276504517,1.2820954322814941
1772514775423737000,2.911737060546875,-0.81488037109375,-1.26431143283844,1.2877304553985596
1772514775433785900,2.921785888671875,-0.8025569915771484,-1.2903798818588257,1.401942491531372
1772514775443833300,2.931833251953125,-0.7639789581298828,-1.1985059976577759,1.5596083402633667
1772514775453843700,2.94184375,-0.5418844223022461,-1.0223039388656616,1.7068793773651123
1772514775463887600,2.9518876953125,-0.14135456085205078,-0.9016292095184326,1.817410945892334
1772514775473968000,2.961968017578125,0.2662477493286133,-0.9207630157470703,1.8423820734024048
1772514775484015600,2.972015625,0.5339622497558594,-0.9583147764205933,1.8081867694854736
1772514775494026200,2.982026123046875,0.6388435363769531,-0.9442116022109985,1.6865622997283936
1772514775504070100,2.992070068359375,0.4903697967529297,-0.9729191064834595,1.4511853456497192
1772514775514155500,3.002155517578125,0.31829261779785156,-0.804959774017334,1.1550514698028564
1772514775524203500,3.01220361328125,0.11833000183105469,-0.5422332286834717,0.8809472918510437
1772514775534249200,3.022249267578125,-0.09953975677490234,-0.3863639831542969,0.6231644153594971
1772514775544297000,3.032296875,-0.22027111053466797,-0.27655887603759766,0.48197633028030396
1772514775554339000,3.042339111328125,-0.3436908721923828,-0.16294360160827637,0.44866806268692017
1772514775564386300,3.05238623046875,-0.426422119140625,-0.013993978500366211,0.4519299566745758
1772514775574404900,3.06240478515625,-0.46321582794189453,0.16289997100830078,0.47836780548095703
1772514775584449300,3.07244921875,-0.5299816131591797,0.3751063346862793,0.5311713814735413
1772514775594550500,3.082550537109375,-0.6168947219848633,0.6080734729766846,0.5685708522796631
1772514775604600600,3.0926005859375,-0.7100639343261719,0.7926137447357178,0.6306849718093872
1772514775614642400,3.102642333984375,-0.92022705078125,0.8945555686950684,0.7064672112464905
1772514775624691700,3.112691650390625,-1.2391414642333984,0.9339675903320312,0.6659888029098511
1772514775634695200,3.122695068359375,-1.4298839569091797,0.9220681190490723,0.46478426456451416
1772514775644739800,3.13273974609375,-1.4177398681640625,0.8242859840393066,0.24571698904037476
1772514775654805200,3.14280517578125,-1.2895374298095703,0.6841669082641602,0.08135280013084412
1772514775664852000,3.15285205078125,-1.1166410446166992,0.5379397869110107,-0.02941104769706726
1772514775674891000,3.16289111328125,-1.0749216079711914,0.4929077625274658,-0.14355304837226868
1772514775684937000,3.17293701171875,-0.9724569320678711,0.5471100807189941,-0.25971701741218567
1772514775694973200,3.18297314453125,-1.0139999389648438,0.5310311317443848,-0.27132269740104675
1772514775705018000,3.19301806640625,-0.9606418609619141,0.5746774673461914,-0.2608380913734436
1772514775715066000,3.203066162109375,-0.7267274856567383,0.6204452514648438,-0.2019563913345337
1772514775725111600,3.213111572265625,-0.5126562118530273,0.5849869251251221,-0.10082609206438065
1772514775735157500,3.223157470703125,-0.3178739547729492,0.52903151512146,-0.03838065266609192
1772514775745202700,3.23320263671875,-0.21834182739257812,0.4849588871002197,-0.06246882677078247
1772514775755267300,3.243267333984375,-0.1516132354736328,0.47151899337768555,-0.09320639073848724
1772514775765314600,3.253314453125,-0.12249946594238281,0.4842958450317383,-0.05043089762330055
1772514775775356000,3.26335595703125,-0.04062461853027344,0.4911503791809082,-0.014080718159675598
1772514775785402400,3.27340234375,-0.030618667602539062,0.4598581790924072,0.027094872668385506
1772514775795418400,3.28341845703125,0.06018543243408203,0.40106940269470215,0.04549358785152435
1772514775815528000,3.30352783203125,0.5889015197753906,0.2461528778076172,0.12862339615821838
1772514775835637200,3.32363720703125,0.9012670516967773,0.08074760437011719,0.23331983387470245
1772514775845684700,3.333684814453125,0.7867231369018555,0.16124176979064941,0.25237298011779785
1772514775855728000,3.34372802734375,0.636540412902832,0.272996187210083,0.24378174543380737
1772514775865775000,3.353775146484375,0.4497871398925781,0.37171030044555664,0.2511874735355377
1772514775875817700,3.363817626953125,0.16336536407470703,0.4754347801208496,0.22626876831054688
1772514775885864400,3.373864501953125,-0.04693031311035156,0.49689364433288574,0.045511581003665924
1772514775895902200,3.383902099609375,-0.09124469757080078,0.43805384635925293,-0.22528713941574097
1772514775905948200,3.3939482421875,0.015664100646972656,0.40383338928222656,-0.43490323424339294
1772514775915967500,3.403967529296875,0.23595714569091797,0.39154505729675293,-0.5593830347061157
1772514775926010600,3.4140107421875,0.5850229263305664,0.4206709861755371,-0.6350438594818115
1772514775936085800,3.424085693359375,0.8971757888793945,0.485943078994751,-0.6842274069786072
1772514775946132000,3.434132080078125,0.9253215789794922,0.5654654502868652,-0.6760408878326416
1772514775956177700,3.444177734375,0.6507129669189453,0.704171895980835,-0.6015486121177673
1772514775966224000,3.454223876953125,0.27251720428466797,0.8561296463012695,-0.5259851813316345
1772514775976282400,3.464282470703125,0.09433174133300781,0.9032726287841797,-0.4243396520614624
1772514775986329900,3.474329833984375,0.12397384643554688,0.9058129787445068,-0.20545516908168793
1772514775996362500,3.484362548828125,0.2221212387084961,0.7972443103790283,0.07992461323738098
1772514776006408400,3.494408447265625,0.3500518798828125,0.587897539138794,0.3673071265220642
1772514776016472300,3.504472412109375,0.5500364303588867,0.2843186855316162,0.5327954292297363
1772514776026520300,3.514520263671875,0.9074954986572266,-0.05019545555114746,0.6792597770690918
1772514776036548600,3.524548583984375,1.5469093322753906,-0.3458378314971924,0.842585563659668
1772514776046594300,3.53459423828125,2.2648162841796875,-0.6335160732269287,1.0150651931762695
1772514776056630300,3.54463037109375,2.830939292907715,-0.8903872966766357,1.045127034187317
1772514776066675200,3.55467529296875,2.85752010345459,-1.1874699592590332,0.9853066205978394
1772514776076743400,3.564743408203125,2.237240791320801,-1.4075591564178467,0.7381298542022705
1772514776086790400,3.574790283203125,1.195068359375,-1.4466094970703125,0.471206933259964
1772514776096825000,3.5848251953125,0.09196281433105469,-1.3442041873931885,0.3530619442462921
1772514776106871000,3.59487109375,-0.8271665573120117,-1.1487977504730225,0.32151269912719727
1772514776116916500,3.60491650390625,-1.279404640197754,-0.9728133678436279,0.38516998291015625
1772514776126962400,3.61496240234375,-1.3053703308105469,-0.9098289012908936,0.48639997839927673
1772514776137025500,3.625025634765625,-1.0627374649047852,-1.0105950832366943,0.6478375196456909
1772514776147073000,3.635072998046875,-0.8175840377807617,-1.1987709999084473,0.8229238986968994
1772514776157103600,3.645103515625,-0.6346063613891602,-1.3074471950531006,0.9712412357330322
1772514776167149600,3.655149658203125,-0.5837335586547852,-1.3594632148742676,1.0618972778320312
1772514776177210400,3.66521044921875,-0.7211790084838867,-1.3849928379058838,0.9787942171096802
1772514776187257600,3.675257568359375,-0.9560918807983398,-1.3684656620025635,0.7718570232391357
1772514776197292800,3.685292724609375,-1.179245948791504,-1.3267128467559814,0.5762090086936951
1772514776207339000,3.695339111328125,-1.4152650833129883,-1.3104140758514404,0.40739133954048157
1772514776217383700,3.7053837890625,-1.5934228897094727,-1.2122223377227783,0.250038206577301
1772514776227430000,3.715429931640625,-1.857905387878418,-1.0784177780151367,0.18746979534626007
1772514776237474800,3.725474853515625,-2.2478485107421875,-0.9589264392852783,0.16536200046539307
1772514776247520500,3.7355205078125,-2.402050018310547,-0.7583131790161133,0.1370849460363388
1772514776257578000,3.745577880859375,-2.14154052734375,-0.6492257118225098,0.1998332440853119
1772514776267625000,3.755625,-1.687082290649414,-0.6789875030517578,0.3792955279350281
1772514776277644500,3.76564453125,-1.1573905944824219,-0.7302908897399902,0.6225427389144897
1772514776287688700,3.775688720703125,-0.6184377670288086,-0.7146267890930176,0.8887465000152588
1772514776297754600,3.785754638671875,-0.27455615997314453,-0.6870036125183105,1.1867417097091675
1772514776307801000,3.795801025390625,-0.10101127624511719,-0.7437593936920166,1.3917293548583984
1772514776317844200,3.80584423828125,0.09798812866210938,-0.7975621223449707,1.3433407545089722
1772514776327890400,3.815890380859375,0.49398040771484375,-0.9191350936889648,1.1961567401885986
1772514776337938400,3.8259384765625,0.8868026733398438,-1.1248078346252441,0.9665001630783081
1772514776347985000,3.83598486328125,1.192082405090332,-1.3370721340179443,0.6505241394042969
1772514776358047500,3.846047607421875,1.330622673034668,-1.526929497718811,0.30789536237716675
1772514776368095200,3.85609521484375,1.2665653228759766,-1.5944498777389526,0.0219745934009552
1772514776378133500,3.866133544921875,1.087620735168457,-1.4625524282455444,-0.07932300865650177
1772514776388180500,3.876180419921875,0.5454626083374023,-1.3369349241256714,-0.1111212968826294
1772514776398232600,3.886232666015625,0.016841888427734375,-1.1992779970169067,-0.08116769790649414
1772514776408280000,3.896280029296875,-0.15575027465820312,-0.9408490657806396,0.01683460921049118
1772514776418308400,3.906308349609375,-0.1362476348876953,-0.8086373805999756,0.13696643710136414
1772514776428353800,3.916353759765625,-0.09272289276123047,-0.8202528953552246,0.2396269142627716
1772514776438417000,3.9264169921875,-0.10644912719726562,-0.7651894092559814,0.30396658182144165
1772514776448464100,3.936464111328125,-0.19167327880859375,-0.5813369750976562,0.3355441987514496
1772514776458496300,3.946496337890625,-0.2721595764160156,-0.3968045711517334,0.362802654504776
1772514776468542000,3.9565419921875,-0.28125858306884766,-0.31121206283569336,0.4199773967266083
1772514776478597400,3.966597412109375,-0.3240194320678711,-0.2102806568145752,0.5015605688095093
1772514776488644000,3.97664404296875,-0.3762054443359375,-0.11878657341003418,0.501994252204895
1772514776498677800,3.986677734375,-0.39465999603271484,-0.05631852149963379,0.45534300804138184
1772514776508723200,3.99672314453125,-0.27933788299560547,0.08285093307495117,0.465751588344574
1772514776518783000,4.006782958984375,-0.17362308502197266,0.24988484382629395,0.47760728001594543
1772514776528829700,4.01682958984375,-0.17759037017822266,0.42005395889282227,0.4216723144054413
1772514776538865400,4.026865478515625,-0.11905384063720703,0.5791471004486084,0.3398699462413788
1772514776548911400,4.036911376953125,-0.0843820571899414,0.6946394443511963,0.2792292535305023
1772514776558960400,4.04696044921875,-0.0784444808959961,0.7911152839660645,0.27735769748687744
1772514776569006600,4.057006591796875,-0.05838203430175781,0.8264265060424805,0.2376319020986557
1772514776579035000,4.067034912109375,0.06155586242675781,0.877901554107666,0.15859076380729675
1772514776589079000,4.0770791015625,0.2764568328857422,0.8687055110931396,0.13961827754974365
1772514776599170600,4.087170654296875,0.39549827575683594,0.8115403652191162,0.10002044588327408
1772514776609219600,4.097219482421875,0.5767412185668945,0.7821228504180908,-0.003410717472434044
1772514776619253200,4.107253173828125,0.834620475769043,0.7410619258880615,-0.06989389657974243
1772514776629300700,4.11730078125,0.9640645980834961,0.6050758361816406,-0.05410384386777878
1772514776639342300,4.12734228515625,1.0180444717407227,0.5314576625823975,-0.05937066301703453
1772514776649389300,4.137389404296875,1.0109243392944336,0.6065571308135986,-0.013566035777330399
1772514776659438600,4.1474384765625,0.9380397796630859,0.6581578254699707,0.025588341057300568
1772514776669485800,4.15748583984375,0.8186149597167969,0.6243278980255127,0.04224348068237305
1772514776679529500,4.167529541015625,0.6860876083374023,0.5964341163635254,0.031122729182243347
1772514776689576400,4.177576416015625,0.5786895751953125,0.5935745239257812,-0.02257855236530304
1772514776699623200,4.187623046875,0.5775957107543945,0.5341761112213135,-0.10698665678501129
1772514776709670000,4.197669921875,0.6636676788330078,0.4457972049713135,-0.19668813049793243
1772514776719718400,4.207718505859375,0.6984853744506836,0.2889280319213867,-0.2729606032371521
1772514776729765000,4.21776513671875,0.6774492263793945,0.21663665771484375,-0.35719072818756104
1772514776739789000,4.2277890625,0.6386203765869141,0.23502612113952637,-0.41301947832107544
1772514776749833700,4.237833740234375,0.45771312713623047,0.28745555877685547,-0.4763007164001465
1772514776759901700,4.247901611328125,0.2254505157470703,0.39463376998901367,-0.5186710357666016
1772514776769948700,4.25794873046875,0.07024478912353516,0.5160846710205078,-0.5658960342407227
1772514776779994400,4.267994384765625,-0.0753335952758789,0.5910303592681885,-0.585578441619873
1772514776790041300,4.278041259765625,-0.21142959594726562,0.7106311321258545,-0.5601820945739746
1772514776800069000,4.288069091796875,-0.2284088134765625,0.8465769290924072,-0.4931856393814087
1772514776810113800,4.29811376953125,-0.20771312713623047,0.9124774932861328,-0.4059464931488037
1772514776820162600,4.30816259765625,-0.06823062896728516,0.9420771598815918,-0.3111768066883087
1772514776830208000,4.3182080078125,0.2137746810913086,0.9686205387115479,-0.27190926671028137
1772514776840268500,4.3282685546875,0.5430326461791992,1.0474045276641846,-0.31612223386764526
1772514776850315500,4.3383154296875,0.6381187438964844,1.0046043395996094,-0.3721771240234375
1772514776860350000,4.348349853515625,0.5475969314575195,0.9256198406219482,-0.40398555994033813
1772514776870395400,4.3583955078125,0.4337577819824219,0.9366748332977295,-0.44982975721359253
1772514776880439000,4.36843896484375,0.3866567611694336,0.8825352191925049,-0.48820969462394714
1772514776890484500,4.378484375,0.46295166015625,0.6408355236053467,-0.5205308794975281
1772514776900534500,4.388534423828125,0.7291755676269531,0.360180139541626,-0.4946536719799042
1772514776910580200,4.398580322265625,0.8938102722167969,0.12554931640625,-0.46315425634384155
1772514776920639500,4.408639404296875,0.9379873275756836,-0.04407548904418945,-0.4824802577495575
1772514776930686700,4.418686767578125,0.9194831848144531,-0.13994479179382324,-0.5469257831573486
1772514776940730000,4.428730224609375,0.7623376846313477,-0.26840639114379883,-0.5814629197120667
1772514776950777000,4.438777099609375,0.5434112548828125,-0.31981563568115234,-0.5894258618354797
1772514776960830700,4.448830810546875,0.3297290802001953,-0.36601781845092773,-0.6167893409729004
1772514776970878200,4.458878173828125,0.2217245101928711,-0.3645298480987549,-0.6334570646286011
1772514776980919300,4.468919189453125,0.19077014923095703,-0.38333868980407715,-0.637515127658844
1772514776990966300,4.47896630859375,0.12733840942382812,-0.428865909576416,-0.6245670914649963
1772514777000996900,4.488996826171875,0.003055572509765625,-0.4586055278778076,-0.5937660932540894
1772514777011042000,4.4990419921875,-0.05224037170410156,-0.4844527244567871,-0.5612631440162659
1772514777021088800,4.5090888671875,-0.0820770263671875,-0.5504140853881836,-0.4791189730167389
1772514777031134000,4.519134033203125,-0.02558612823486328,-0.6276226043701172,-0.30031922459602356
1772514777041204700,4.529204833984375,0.06892013549804688,-0.593888521194458,-0.12502898275852203
1772514777051252700,4.539252685546875,0.17266559600830078,-0.5453646183013916,0.04906454682350159
1772514777061258000,4.549258056640625,0.1301259994506836,-0.5388128757476807,0.2630963623523712
1772514777071301600,4.559301513671875,0.0941619873046875,-0.4926261901855469,0.48906028270721436
1772514777081368600,4.56936865234375,-0.03992271423339844,-0.42649149894714355,0.7350412607192993
1772514777091414500,4.57941455078125,-0.22117900848388672,-0.38953661918640137,0.9242639541625977
1772514777101463300,4.58946337890625,-0.3260316848754883,-0.3558487892150879,1.0429713726043701
1772514777111509500,4.599509521484375,-0.3840465545654297,-0.4001576900482178,1.121457815170288
1772514777121569500,4.609569580078125,-0.48201560974121094,-0.530451774597168,1.1197530031204224
1772514777131617300,4.6196171875,-0.6588954925537109,-0.6443672180175781,1.0454716682434082
1772514777141659600,4.62965966796875,-0.6619939804077148,-0.6779887676239014,0.9218001365661621
1772514777151707000,4.639706787109375,-0.591853141784668,-0.703406572341919,0.8707015514373779
1772514777161741300,4.6497412109375,-0.4667654037475586,-0.7994329929351807,0.7936681509017944
1772514777171787300,4.659787353515625,-0.3717164993286133,-0.935218095779419,0.6498239040374756
1772514777181841700,4.669841552734375,-0.38232898712158203,-1.0741007328033447,0.42666152119636536
1772514777191888400,4.679888427734375,-0.3547201156616211,-1.1689035892486572,0.23981523513793945
1772514777201925600,4.689925537109375,-0.3940591812133789,-1.2197914123535156,0.10277250409126282
1772514777211971600,4.6999716796875,-0.5581235885620117,-1.229982614517212,0.04989220201969147
1772514777222016800,4.710016845703125,-0.6751222610473633,-1.1742613315582275,0.087710902094841
1772514777232062700,4.720062744140625,-0.5686445236206055,-1.0618071556091309,0.1956355720758438
1772514777242091300,4.73009130859375,-0.3250284194946289,-0.8982055187225342,0.32669031620025635
1772514777252135400,4.740135498046875,-0.27347564697265625,-0.8099887371063232,0.4600294232368469
1772514777262217500,4.750217529296875,-0.3273019790649414,-0.7356231212615967,0.4407961964607239
1772514777272265200,4.76026513671875,-0.18092632293701172,-0.6643867492675781,0.3475734293460846
1772514777282295000,4.770294921875,-0.04977989196777344,-0.6248886585235596,0.2696647644042969
1772514777292341000,4.780341064453125,-0.0912628173828125,-0.5696761608123779,0.2098589539527893
1772514777302390500,4.790390625,-0.2095022201538086,-0.5220906734466553,0.08673699200153351
1772514777312436700,4.800436767578125,-0.1702585220336914,-0.44361376762390137,-0.06466803699731827
1772514777322495500,4.81049560546875,0.04598808288574219,-0.38440728187561035,-0.10664999485015869
1772514777332543000,4.82054296875,0.01973724365234375,-0.3053433895111084,-0.16422666609287262
1772514777342583600,4.83058349609375,-0.2719402313232422,-0.17421770095825195,-0.2530750334262848
1772514777352630500,4.840630615234375,-0.5948028564453125,-0.042722225189208984,-0.35901695489883423
1772514777362670000,4.850670166015625,-0.768010139465332,0.019089460372924805,-0.4343028664588928
1772514777372716300,4.86071630859375,-0.8208484649658203,0.05433464050292969,-0.41566091775894165
1772514777382759000,4.870759033203125,-0.9302616119384766,0.12422728538513184,-0.38137295842170715
1772514777392804600,4.8808046875,-1.0250701904296875,0.21631860733032227,-0.3058130741119385
1772514777402851800,4.890851806640625,-0.9916601181030273,0.2913992404937744,-0.2130887806415558
1772514777412897500,4.9008974609375,-0.8021717071533203,0.23256397247314453,-0.0830720067024231
1772514777422962200,4.910962158203125,-0.7241935729980469,0.22188520431518555,0.02458345890045166
1772514777433010000,4.921010009765625,-0.776616096496582,0.31728196144104004,-0.007281452417373657
1772514777443049000,4.931049072265625,-0.6965579986572266,0.3706390857696533,-0.05767536163330078
1772514777453095700,4.941095703125,-0.34569835662841797,0.3520333766937256,-0.04744008183479309
1772514777463131600,4.951131591796875,0.0137481689453125,0.31880855560302734,0.013235390186309814
1772514777473177300,4.96117724609375,0.12002849578857422,0.3434460163116455,0.045711904764175415
1772514777483235600,4.971235595703125,0.10744094848632812,0.4018096923828125,0.09690055251121521
1772514777493282600,4.981282470703125,0.29109954833984375,0.47635459899902344,0.24405036866664886
1772514777503331600,4.99133154296875,0.6036243438720703,0.5629005432128906,0.5086728930473328
1772514777513378800,5.00137890625,0.7108669281005859,0.6507208347320557,0.7369229793548584
1772514777523424800,5.0114248046875,0.6561307907104492,0.7410843372344971,0.8940249681472778
1772514777533472000,5.021471923828125,0.6970148086547852,0.8369946479797363,1.0254117250442505
1772514777543513600,5.031513671875,0.837702751159668,0.8828120231628418,1.1149022579193115
1772514777553560000,5.04156005859375,1.211897850036621,0.8731961250305176,1.211554765701294
1772514777563594000,5.051593994140625,1.5717430114746094,0.8615925312042236,1.254859447479248
1772514777573639200,5.06163916015625,1.4741811752319336,0.8819990158081055,1.197988510131836
1772514777583687400,5.0716875,1.1640968322753906,0.9093315601348877,1.0039308071136475
1772514777593733000,5.081733154296875,0.8228616714477539,0.9025187492370605,0.7881385684013367
1772514777603780000,5.091780029296875,0.5358753204345703,0.8830776214599609,0.6304786205291748
1772514777613825800,5.10182568359375,0.3072700500488281,0.8626515865325928,0.5407896637916565
1772514777623873000,5.111873046875,0.21793270111083984,0.8563289642333984,0.45247533917427063
1772514777633918700,5.121918701171875,0.2630033493041992,0.858090877532959,0.4312211573123932
1772514777643977500,5.1319775390625,0.29449462890625,0.7896914482116699,0.40892302989959717
1772514777654024700,5.142024658203125,0.16956710815429688,0.6784851551055908,0.39552682638168335
1772514777664059600,5.1520595703125,0.022248268127441406,0.6204793453216553,0.3571615517139435
1772514777674105600,5.162105712890625,-0.07618999481201172,0.6170735359191895,0.3744257986545563
1772514777684152800,5.17215283203125,-0.10688304901123047,0.5874605178833008,0.4426310658454895
1772514777694198800,5.18219873046875,-0.16071510314941406,0.5172178745269775,0.4658515453338623
1772514777704242700,5.19224267578125,-0.32836341857910156,0.4779050350189209,0.44817960262298584
1772514777714288600,5.20228857421875,-0.3043212890625,0.389599084854126,0.4597424268722534
1772514777724349700,5.212349609375,-0.060535430908203125,0.2763082981109619,0.5033080577850342
1772514777734397000,5.22239697265625,0.12609291076660156,0.16935086250305176,0.6462517976760864
1772514777744440300,5.2324404296875,0.23222637176513672,0.13495469093322754,0.7380988597869873
1772514777754487300,5.2424873046875,0.210296630859375,0.07360672950744629,0.7872986197471619
1772514777764523300,5.252523193359375,0.16064453125,0.09696292877197266,0.8401044607162476
1772514777774569000,5.26256884765625,0.07803916931152344,0.17315912246704102,0.8823496103286743
1772514777784628000,5.2726279296875,-0.0954294204711914,0.28940343856811523,1.0311617851257324
1772514777794675000,5.282675048828125,-0.14104652404785156,0.3385505676269531,1.2862764596939087
1772514777804723000,5.292722900390625,0.1021432876586914,0.33762097358703613,1.6195570230484009
1772514777814770200,5.302770263671875,0.5379514694213867,0.24820613861083984,1.882981300354004
1772514777824815900,5.31281591796875,0.9996109008789062,0.07337808609008789,2.0241944789886475
1772514777834863000,5.322863037109375,1.4499225616455078,-0.198655366897583,1.9865853786468506
1772514777844912000,5.332912109375,1.7517518997192383,-0.52813720703125,1.765383005142212
1772514777854959600,5.342959716796875,1.8161392211914062,-0.8329603672027588,1.396411657333374
1772514777864963300,5.35296337890625,1.6253948211669922,-1.1251156330108643,0.9515397548675537
1772514777875006500,5.36300634765625,1.2138328552246094,-1.329116702079773,0.5904688835144043
1772514777885095200,5.37309521484375,0.624333381652832,-1.4294837713241577,0.46518051624298096
1772514777895143000,5.383142822265625,0.03255271911621094,-1.3034833669662476,0.6120247840881348
1772514777905186800,5.393186767578125,-0.32877159118652344,-1.0346851348876953,0.8727748394012451
1772514777915234000,5.403234130859375,-0.5424356460571289,-0.783196210861206,1.193568229675293
1772514777925281800,5.41328173828125,-0.6668968200683594,-0.641939640045166,1.4816555976867676
1772514777935329000,5.4233291015625,-0.6986112594604492,-0.5736639499664307,1.6902563571929932
1772514777945372000,5.433371826171875,-0.5957670211791992,-0.6180453300476074,1.7341892719268799
1772514777955418600,5.443418701171875,-0.3589200973510742,-0.7785921096801758,1.5848886966705322
1772514777965466000,5.453466064453125,-0.09742259979248047,-0.971031904220581,1.326789379119873
1772514777975512800,5.463512939453125,0.21882343292236328,-1.1134388446807861,1.021299123764038
1772514777985561600,5.4735615234375,0.43848705291748047,-1.248891830444336,0.7374653816223145
1772514777995608600,5.483608642578125,0.4489297866821289,-1.3966859579086304,0.48315197229385376
1772514778005651700,5.493651611328125,0.28017234802246094,-1.3685688972473145,0.20699065923690796
1772514778015698400,5.503698486328125,0.004349708557128906,-1.218531608581543,0.023350834846496582
1772514778025728800,5.513728759765625,-0.2977018356323242,-1.0417101383209229,-0.025570273399353027
1772514778035773700,5.523773681640625,-0.4784727096557617,-0.880033016204834,0.05691736936569214
1772514778045817900,5.53381787109375,-0.5765142440795898,-0.7286875247955322,0.2266627848148346
1772514778055862800,5.54386279296875,-0.6732110977172852,-0.5823493003845215,0.39961889386177063
1772514778065910500,5.55391064453125,-0.802577018737793,-0.45260119438171387,0.5431554913520813
1772514778075955700,5.563955810546875,-0.9032344818115234,-0.3838920593261719,0.6114360690116882
1772514778086016300,5.574016357421875,-0.9903488159179688,-0.3495666980743408,0.5998329520225525
1772514778096063000,5.58406298828125,-1.078965187072754,-0.33799147605895996,0.5209067463874817
1772514778106112000,5.594112060546875,-0.9880819320678711,-0.33850932121276855,0.35485008358955383
1772514778116159000,5.604158935546875,-0.7561607360839844,-0.3664877414703369,0.18912476301193237
1772514778126191600,5.614191650390625,-0.6119165420532227,-0.4437699317932129,0.06834980845451355
1772514778136237000,5.624237060546875,-0.48293590545654297,-0.4766664505004883,-0.011421561241149902
1772514778146283300,5.634283203125,-0.45990467071533203,-0.4418525695800781,-0.0673915445804596
1772514778156329000,5.644328857421875,-0.42362213134765625,-0.44325852394104004,-0.01807326078414917
1772514778166388000,5.654387939453125,-0.4369649887084961,-0.5119109153747559,0.10966753959655762
1772514778176435000,5.66443505859375,-0.31451416015625,-0.5396907329559326,0.2976720333099365
1772514778186485200,5.6744853515625,0.023850440979003906,-0.581716775894165,0.4943086504936218
1772514778196532500,5.684532470703125,0.48699474334716797,-0.6758215427398682,0.5697104930877686
1772514778206591000,5.694591064453125,1.0038671493530273,-0.852215051651001,0.5374609231948853
1772514778216639500,5.704639404296875,1.5038948059082031,-1.0608949661254883,0.4812799096107483
1772514778226655000,5.714655029296875,1.9220714569091797,-1.2589350938796997,0.42981722950935364
1772514778236700000,5.724699951171875,2.150479316711426,-1.4133411645889282,0.3670935332775116
1772514778246748000,5.734747802734375,2.0760698318481445,-1.5232447385787964,0.29074057936668396
1772514778256793000,5.74479296875,1.8525514602661133,-1.5134183168411255,0.20732635259628296
1772514778266840800,5.7548408203125,1.642526626586914,-1.413014531135559,0.15742412209510803
1772514778276886300,5.76488623046875,1.3599920272827148,-1.2371793985366821,0.19183722138404846
1772514778286934800,5.774934814453125,0.9428110122680664,-1.05242919921875,0.34404128789901733
1772514778296980500,5.78498046875,0.4623098373413086,-0.799285888671875,0.5288382172584534
1772514778307053300,5.79505322265625,-0.034515380859375,-0.5372848510742188,0.7215678691864014
1772514778317101800,5.805101806640625,-0.4387350082397461,-0.30668091773986816,0.8686390519142151
1772514778327136000,5.815135986328125,-0.751338005065918,-0.1574382781982422,0.9328421354293823
1772514778337183000,5.825182861328125,-1.0255956649780273,-0.03989005088806152,0.9487658739089966
1772514778347213600,5.835213623046875,-1.2670965194702148,0.07187509536743164,0.9349057674407959
1772514778357259000,5.845259033203125,-1.352635383605957,0.14676570892333984,0.8948438167572021
1772514778367308000,5.85530810546875,-1.278304100036621,0.14763712882995605,0.8652328848838806
1772514778377353700,5.865353759765625,-1.1255598068237305,0.10769057273864746,0.8318406343460083
1772514778387398100,5.875398193359375,-0.8561820983886719,0.01694798469543457,0.7566230297088623
1772514778397443800,5.88544384765625,-0.5319862365722656,-0.07806134223937988,0.6741843223571777
1772514778407509800,5.895509765625,-0.2859067916870117,-0.16965746879577637,0.5736173391342163
1772514778417557500,5.9055576171875,-0.06952095031738281,-0.17778229713439941,0.4509609341621399
1772514778427581200,5.915581298828125,0.2511281967163086,-0.18916082382202148,0.3391415476799011
1772514778437626600,5.925626708984375,0.4518413543701172,-0.27687740325927734,0.234258770942688
1772514778447673900,5.935673828125,0.5762825012207031,-0.2797508239746094,0.10218650102615356
1772514778457719300,5.94571923828125,0.7199668884277344,-0.2173769474029541,-0.06006979942321777
1772514778467768300,5.955768310546875,0.8589982986450195,-0.2674412727355957,-0.12069261074066162
1772514778477814300,5.965814208984375,0.9408721923828125,-0.3490605354309082,-0.10992377996444702
1772514778487861800,5.97586181640625,1.0946168899536133,-0.30434298515319824,-0.08045434951782227
1772514778497908000,5.985907958984375,1.2818946838378906,-0.23853659629821777,-0.007232844829559326
1772514778507971600,5.9959716796875,1.4217300415039062,-0.2574129104614258,0.06330657005310059
1772514778518019300,6.006019287109375,1.586160659790039,-0.24207377433776855,0.16542917490005493
1772514778528034800,6.016034912109375,1.7324275970458984,-0.2746105194091797,0.31894218921661377
1772514778538079500,6.02607958984375,1.7941350936889648,-0.2702665328979492,0.486080527305603
1772514778548140000,6.03614013671875,1.8337535858154297,-0.2395026683807373,0.7328054308891296
1772514778558186200,6.046186279296875,1.7703371047973633,-0.2068161964416504,0.9635595083236694
1772514778568232200,6.056232177734375,1.6901473999023438,-0.23418283462524414,1.0879101753234863
1772514778578278400,6.0662783203125,1.5503835678100586,-0.2926208972930908,1.184282898902893
1772514778588336600,6.076336669921875,1.2843551635742188,-0.3289196491241455,1.254644751548767
1772514778598384000,6.086384033203125,0.9351272583007812,-0.2987639904022217,1.26234769821167
1772514778608442400,6.0964423828125,0.5263357162475586,-0.30054497718811035,1.2140498161315918
1772514778618491000,6.106490966796875,0.06215095520019531,-0.24564719200134277,1.0718162059783936
1772514778628508400,6.11650830078125,-0.3721790313720703,-0.2654988765716553,0.9348657131195068
1772514778638553600,6.1265537109375,-0.7010269165039062,-0.2627441883087158,0.8056695461273193
1772514778648601600,6.1366015625,-0.9537687301635742,-0.2748391628265381,0.6393150091171265
1772514778658647300,6.146647216796875,-1.173985481262207,-0.2964057922363281,0.47681331634521484
1772514778668695600,6.156695556640625,-1.2425861358642578,-0.3132343292236328,0.30094489455223083
1772514778678741500,6.166741455078125,-1.241098403930664,-0.397580623626709,0.11051726341247559
1772514778688787500,6.176787353515625,-1.250457763671875,-0.49810004234313965,-0.06088602542877197
1772514778698833200,6.186833251953125,-1.2371063232421875,-0.5432891845703125,-0.2413690686225891
1772514778708897000,6.19689697265625,-1.2345342636108398,-0.5664401054382324,-0.4199810028076172
1772514778718944500,6.206944580078125,-1.1856603622436523,-0.5807039737701416,-0.5896878838539124
1772514778728974000,6.21697412109375,-1.0955848693847656,-0.6041929721832275,-0.7531344294548035
1772514778739019800,6.227019775390625,-0.9883460998535156,-0.598250150680542,-0.9040662050247192
1772514778749067500,6.237067626953125,-0.8589982986450195,-0.5920512676239014,-0.9747581481933594
1772514778759113500,6.247113525390625,-0.7219123840332031,-0.5763146877288818,-0.9904808402061462
1772514778769161200,6.2571611328125,-0.6106138229370117,-0.5606474876403809,-1.0195729732513428
1772514778779207400,6.26720751953125,-0.39631080627441406,-0.6116862297058105,-1.0215401649475098
1772514778789265700,6.277265625,-0.09340286254882812,-0.7490949630737305,-1.0264662504196167
1772514778799313200,6.287313232421875,0.23641586303710938,-0.9263935089111328,-1.0237984657287598
1772514778809360600,6.297360595703125,0.5650157928466797,-1.1210010051727295,-1.0074121952056885
1772514778819408100,6.307408203125,0.8500242233276367,-1.210215449333191,-0.9951550364494324
1772514778829437400,6.3174375,1.0589017868041992,-1.2630566358566284,-1.0322160720825195
1772514778839483100,6.327483154296875,1.1780567169189453,-1.34298837184906,-1.0970377922058105
1772514778849530000,6.337530029296875,1.1219663619995117,-1.393118977546692,-1.1546704769134521
1772514778859575800,6.347575927734375,0.9149713516235352,-1.3471556901931763,-1.2260513305664062
1772514778869624800,6.357624755859375,0.7004098892211914,-1.2244683504104614,-1.268007516860962
1772514778879670800,6.3676708984375,0.5113697052001953,-1.096765160560608,-1.1892298460006714
1772514778889717800,6.3777177734375,0.4095172882080078,-0.949409008026123,-1.0266733169555664
1772514778899764000,6.387763916015625,0.2896757125854492,-0.8880560398101807,-0.8477897644042969
1772514778909805800,6.397805908203125,0.1424427032470703,-0.8173472881317139,-0.7485246658325195
1772514778919851500,6.4078515625,-0.04215049743652344,-0.7356874942779541,-0.68585205078125
1772514778929900300,6.417900390625,-0.2595844268798828,-0.6942808628082275,-0.5208033919334412
1772514778939946500,6.427946533203125,-0.33389854431152344,-0.5991418361663818,-0.35753417015075684
1772514778949991700,6.43799169921875,-0.20387935638427734,-0.4957916736602783,-0.09285378456115723
1772514778960037600,6.44803759765625,-0.07041072845458984,-0.3937993049621582,0.23838013410568237
1772514778970086400,6.45808642578125,0.042812347412109375,-0.28881025314331055,0.5465030670166016
1772514778980132600,6.468132568359375,0.2504539489746094,-0.21891093254089355,0.7988697290420532
1772514778990225200,6.47822509765625,0.3711223602294922,-0.19920063018798828,1.021583914756775
1772514779000276000,6.48827587890625,0.32863903045654297,-0.19606375694274902,1.1688495874404907
1772514779010254600,6.498254638671875,0.2855520248413086,-0.19930219650268555,1.22585129737854
1772514779020298200,6.50829833984375,0.40877532958984375,-0.27033281326293945,1.2350255250930786
1772514779030380800,6.518380859375,0.5169000625610352,-0.36277294158935547,1.1732953786849976
1772514779040428300,6.52842822265625,0.4435453414916992,-0.44100069999694824,1.110807180404663
1772514779050472700,6.53847265625,0.3229227066040039,-0.5245983600616455,1.0732653141021729
1772514779060520000,6.54852001953125,0.19310474395751953,-0.5890159606933594,1.044853687286377
1772514779070570000,6.558570068359375,0.00609588623046875,-0.6285698413848877,1.0839179754257202
1772514779080617500,6.568617431640625,-0.20488548278808594,-0.6132752895355225,1.1488462686538696
1772514779090659300,6.578659423828125,-0.3733682632446289,-0.6180582046508789,1.1779553890228271
1772514779100706300,6.588706298828125,-0.3374671936035156,-0.7083666324615479,1.1894736289978027
1772514779110753300,6.598753173828125,-0.10690879821777344,-0.8371957540512085,1.1595594882965088
1772514779120800000,6.608800048828125,-0.09198474884033203,-0.9405084848403931,1.0807123184204102
1772514779130840800,6.6188408203125,-0.19142818450927734,-0.9818395376205444,0.9366267323493958
1772514779140887000,6.628886962890625,-0.1712474822998047,-0.9367765188217163,0.7715044021606445
1772514779150938000,6.638938232421875,0.049284934997558594,-0.9769865274429321,0.7087103128433228
1772514779160984800,6.64898486328125,0.30800724029541016,-0.9852429628372192,0.6545085310935974
1772514779171030000,6.659030029296875,0.22366714477539062,-0.9603427648544312,0.5478396415710449
1772514779181076700,6.66907666015625,-0.08365249633789062,-0.8403366804122925,0.42324531078338623
1772514779191124500,6.67912451171875,-0.37558460235595703,-0.6890889406204224,0.28265878558158875
1772514779201171200,6.689171142578125,-0.5909585952758789,-0.5605615377426147,0.21233488619327545
1772514779211218400,6.699218505859375,-0.6301155090332031,-0.4050166606903076,0.26942285895347595
1772514779221265200,6.70926513671875,-0.5174999237060547,-0.2407832145690918,0.40175294876098633
1772514779231292000,6.7192919921875,-0.3248758316040039,-0.1493394374847412,0.5219141840934753
1772514779241336800,6.7293369140625,-0.1808300018310547,-0.05091571807861328,0.6151875257492065
1772514779251386000,6.73938623046875,-0.09899139404296875,0.09998083114624023,0.6346338987350464
1772514779261431300,6.749431396484375,-0.14114761352539062,0.23547840118408203,0.5789451599121094
1772514779271488500,6.759488525390625,-0.06818675994873047,0.31238508224487305,0.5267150402069092
1772514779281535000,6.769534912109375,0.06723785400390625,0.296588659286499,0.5009213089942932
1772514779291579600,6.77957958984375,0.1075143814086914,0.33090710639953613,0.43517157435417175
1772514779301625600,6.78962548828125,0.033631324768066406,0.444455623626709,0.34820815920829773
1772514779311666400,6.79966650390625,0.08918190002441406,0.561861515045166,0.3336558938026428
1772514779321712000,6.809712158203125,0.3788137435913086,0.559607982635498,0.3959941565990448
1772514779331756500,6.819756591796875,0.6062307357788086,0.5031030178070068,0.4478527009487152
1772514779341802000,6.829802001953125,0.6761665344238281,0.5399603843688965,0.4873785376548767
1772514779351847200,6.83984716796875,0.6698675155639648,0.5662943124771118,0.5246787667274475
1772514779361892600,6.849892578125,0.7926883697509766,0.5256518125534058,0.5989669561386108
1772514779371949800,6.85994970703125,0.9821348190307617,0.4612610340118408,0.7120182514190674
1772514779381996300,6.869996337890625,1.1044721603393555,0.44363129138946533,0.8033963441848755
1772514779392045600,6.880045654296875,1.1696996688842773,0.39938998222351074,0.8394380807876587
1772514779402092300,6.89009228515625,1.2308378219604492,0.2934136390686035,0.828233003616333
1772514779412130000,6.900130126953125,1.2119073867797852,0.17136573791503906,0.764271080493927
1772514779422176000,6.910176025390625,0.9270820617675781,0.14180874824523926,0.6710948944091797
1772514779432234800,6.92023486328125,0.5773067474365234,0.2160329818725586,0.5552027225494385
1772514779442282000,6.930281982421875,0.3055391311645508,0.20539987087249756,0.5154118537902832
1772514779452323000,6.940322998046875,0.12552547454833984,0.19811570644378662,0.5894024968147278
1772514779462369800,6.950369873046875,-0.02525806427001953,0.22371244430541992,0.6543409824371338
1772514779472416800,6.960416748046875,-0.1757974624633789,0.2641301155090332,0.707012414932251
1772514779482463500,6.97046337890625,-0.29288673400878906,0.2726095914840698,0.6959460973739624
1772514779492498000,6.980497802734375,-0.18548965454101562,0.22510814666748047,0.6015095114707947
1772514779502543400,6.99054345703125,-0.1308155059814453,0.1535027027130127,0.49832683801651
1772514779512605400,7.00060546875,-0.24778079986572266,0.08967435359954834,0.3320169150829315
1772514779522652700,7.010652587890625,-0.34990406036376953,0.06349587440490723,0.15768401324748993
1772514779532681000,7.020680908203125,-0.3993806838989258,-0.014100790023803711,0.08412351459264755
1772514779542726400,7.030726318359375,-0.27239418029785156,-0.08942770957946777,0.06457602232694626
1772514779552774400,7.0407744140625,-0.06484603881835938,-0.08172059059143066,0.07171329855918884
1772514779562820000,7.050820068359375,0.05140399932861328,-0.1072535514831543,0.0777602344751358
1772514779572881200,7.060881103515625,0.13411426544189453,-0.1526423692703247,0.04042787104845047
1772514779582928100,7.07092822265625,0.2025747299194336,-0.13233768939971924,-0.035144589841365814
1772514779592959500,7.08095947265625,0.19484710693359375,-0.08051753044128418,-0.057364076375961304
1772514779603005000,7.0910048828125,0.17069435119628906,0.01720118522644043,-0.013075843453407288
1772514779613052200,7.10105224609375,0.26970767974853516,0.08836889266967773,0.038565799593925476
1772514779623098000,7.11109814453125,0.4241762161254883,0.13692092895507812,0.08888781070709229
1772514779633144600,7.12114453125,0.4830169677734375,0.16092920303344727,0.08256196975708008
1772514779643190500,7.1311904296875,0.3349485397338867,0.23565125465393066,-0.00223463773727417
1772514779653254700,7.141254638671875,0.09137630462646484,0.3007197380065918,-0.08851419389247894
1772514779663302100,7.15130224609375,-0.11007499694824219,0.4199516773223877,-0.17225316166877747
1772514779673341400,7.161341552734375,-0.30801868438720703,0.5418491363525391,-0.18408527970314026
1772514779683388400,7.171388427734375,-0.45094871520996094,0.6345360279083252,-0.1180708035826683
1772514779693439700,7.181439697265625,-0.45072174072265625,0.7143633365631104,0.0179997980594635
1772514779703487000,7.191487060546875,-0.2866058349609375,0.7736437320709229,0.1630886048078537
1772514779713515300,7.201515380859375,-0.013214111328125,0.7891185283660889,0.25461965799331665
1772514779723560400,7.211560546875,0.2784156799316406,0.7037193775177002,0.23931674659252167
1772514779733625300,7.221625244140625,0.5979719161987305,0.5308115482330322,0.20493103563785553
1772514779743672600,7.231672607421875,0.879878044128418,0.41938281059265137,0.21319594979286194
1772514779753701400,7.241701416015625,0.9512920379638672,0.34665727615356445,0.22328472137451172
1772514779763746800,7.251746826171875,0.8279504776000977,0.2528519630432129,0.1669219583272934
1772514779773806300,7.261806396484375,0.6446857452392578,0.2099907398223877,0.08256955444812775
1772514779783853300,7.271853271484375,0.4157829284667969,0.12837958335876465,-0.021379396319389343
1772514779793876000,7.2818759765625,0.15543556213378906,0.0906527042388916,-0.11764812469482422
1772514779803920600,7.291920654296875,-0.15087127685546875,0.08838558197021484,-0.23115915060043335
1772514779813981700,7.301981689453125,-0.4556150436401367,0.06562113761901855,-0.3438750207424164
1772514779824028000,7.31202783203125,-0.6492595672607422,0.033136606216430664,-0.4340587854385376
1772514779834074600,7.32207470703125,-0.8517217636108398,-0.05610799789428711,-0.546951174736023
1772514779844120800,7.332120849609375,-1.0012693405151367,-0.06718301773071289,-0.6525784730911255
1772514779854181400,7.342181396484375,-0.9742794036865234,-0.06124615669250488,-0.7563908100128174
1772514779864229000,7.35222900390625,-0.795567512512207,-0.09910774230957031,-0.7796995043754578
1772514779874272300,7.362272216796875,-0.6234769821166992,-0.11768698692321777,-0.67615807056427
1772514779884319500,7.372319580078125,-0.41526317596435547,-0.0543055534362793,-0.633293867111206
1772514779894353400,7.382353515625,-0.29056549072265625,-0.042658090591430664,-0.669185221195221
1772514779904399000,7.392399169921875,-0.2017345428466797,-0.04847359657287598,-0.6157433986663818
1772514779914448000,7.40244775390625,-0.0059051513671875,-0.06567978858947754,-0.49722495675086975
1772514779924494000,7.412494140625,0.38698387145996094,-0.10747504234313965,-0.320935994386673
1772514779934538000,7.4225380859375,0.8953313827514648,-0.22174859046936035,-0.17583055794239044
1772514779944584000,7.432583984375,1.4718704223632812,-0.44386744499206543,-0.1859235316514969
1772514779954646300,7.442646240234375,2.0701370239257812,-0.7061283588409424,-0.29417508840560913
1772514779964693800,7.45269384765625,2.4197702407836914,-1.014235496520996,-0.4812864065170288
1772514779974734600,7.462734619140625,2.3889217376708984,-1.266905426979065,-0.7640395760536194
1772514779984781300,7.47278125,2.0025739669799805,-1.412152886390686,-1.095287561416626
1772514779994815200,7.482815185546875,1.3803997039794922,-1.3429254293441772,-1.3609676361083984
1772514780004861000,7.49286083984375,0.7325963973999023,-1.1483964920043945,-1.6009390354156494
1772514780014909700,7.50290966796875,0.28319549560546875,-0.9276342391967773,-1.8737128973007202
1772514780024955600,7.51295556640625,0.0507965087890625,-0.7910997867584229,-1.9926245212554932
1772514780035012600,7.5230126953125,-0.0983285903930664,-0.6787662506103516,-1.8671938180923462
1772514780045059600,7.5330595703125,-0.25476932525634766,-0.5490047931671143,-1.6426379680633545
1772514780055084300,7.543084228515625,-0.38037681579589844,-0.4301624298095703,-1.4179506301879883
1772514780065129200,7.553129150390625,-0.45645713806152344,-0.4019484519958496,-1.1651487350463867
1772514780075197400,7.563197509765625,-0.5601768493652344,-0.37569379806518555,-0.9392602443695068
1772514780085244700,7.57324462890625,-0.6493721008300781,-0.3435370922088623,-0.722436785697937
1772514780095280000,7.583280029296875,-0.7391595840454102,-0.3127753734588623,-0.585898756980896
1772514780105326300,7.593326416015625,-0.7867422103881836,-0.325822114944458,-0.4651111960411072
1772514780115381800,7.6033818359375,-0.9114456176757812,-0.3640761375427246,-0.40504440665245056
1772514780125428700,7.6134287109375,-1.0983238220214844,-0.42881226539611816,-0.4100467264652252
1772514780135461600,7.623461669921875,-1.2851238250732422,-0.5155291557312012,-0.4657372534275055
1772514780145507000,7.633507080078125,-1.4291191101074219,-0.5998740196228027,-0.5507262945175171
1772514780155557000,7.64355712890625,-1.5452032089233398,-0.6760175228118896,-0.6318061947822571
1772514780165603000,7.65360302734375,-1.6386299133300781,-0.75262451171875,-0.6806187629699707
1772514780175662600,7.66366259765625,-1.6429853439331055,-0.7667183876037598,-0.6449165344238281
1772514780185709800,7.673709716796875,-1.5393896102905273,-0.7806186676025391,-0.5295360088348389
1772514780195746800,7.683746826171875,-1.4854936599731445,-0.7993984222412109,-0.44671159982681274
1772514780205793300,7.693793212890625,-1.533797264099121,-0.784245491027832,-0.3940834403038025
1772514780215851500,7.7038515625,-1.617279052734375,-0.7301661968231201,-0.39587855339050293
1772514780225899000,7.71389892578125,-1.6739511489868164,-0.7233676910400391,-0.4323795437812805
1772514780235946200,7.7239462890625,-1.4313364028930664,-0.6275219917297363,-0.492966890335083
1772514780245993700,7.73399365234375,-1.3189878463745117,-0.555617094039917,-0.5536174178123474
1772514780256004000,7.744004150390625,-1.293248176574707,-0.49880337715148926,-0.6082718968391418
1772514780266047700,7.7540478515625,-1.4641790390014648,-0.4552121162414551,-0.5621242523193359
1772514780276131800,7.7641318359375,-1.6031885147094727,-0.3110332489013672,-0.5067047476768494
1772514780286179600,7.7741796875,-1.4872474670410156,-0.13379192352294922,-0.4534571170806885
1772514780296223000,7.784222900390625,-1.241220474243164,0.0010116100311279297,-0.30409908294677734
1772514780306270500,7.7942705078125,-1.0076522827148438,0.13437700271606445,-0.2149319052696228
1772514780316316200,7.804316162109375,-0.8666582107543945,0.29230380058288574,-0.20611989498138428
1772514780326363400,7.81436328125,-0.741058349609375,0.48680543899536133,-0.14398115873336792
1772514780336373500,7.82437353515625,-0.6208667755126953,0.6965427398681641,-0.03824526071548462
1772514780346417200,7.834417236328125,-0.4008817672729492,0.839360237121582,0.05132931470870972
1772514780356502000,7.844501953125,-0.04757213592529297,0.9571332931518555,0.19101935625076294
1772514780366549500,7.854549560546875,0.43486690521240234,1.0328359603881836,0.43391308188438416
1772514780376595000,7.864594970703125,0.6795864105224609,1.1014230251312256,0.6108754873275757
1772514780386642400,7.874642333984375,0.7021408081054688,1.1372761726379395,0.6671867370605469
1772514780396686300,7.884686279296875,0.7700681686401367,1.2467145919799805,0.6937741041183472
1772514780406733300,7.8947333984375,0.7971124649047852,1.2921171188354492,0.7653255462646484
1772514780416794000,7.904794189453125,0.6925220489501953,1.2891979217529297,0.7280747890472412
1772514780426842600,7.914842529296875,0.5372104644775391,1.2829792499542236,0.5536046028137207
1772514780436856600,7.924856689453125,0.44507312774658203,1.256593942642212,0.40239790081977844
1772514780446901800,7.93490185546875,0.4393320083618164,1.2348833084106445,0.3337554335594177
1772514780456967400,7.944967529296875,0.5626821517944336,1.217623233795166,0.28855395317077637
1772514780467014400,7.955014404296875,0.7385520935058594,1.1034948825836182,0.23204129934310913
1772514780477043500,7.96504345703125,0.8862380981445312,0.9573714733123779,0.23102545738220215
1772514780487089000,7.9750888671875,0.9157400131225586,0.8775782585144043,0.20535260438919067
1772514780497134800,7.985134765625,0.913482666015625,0.8444719314575195,0.12231981754302979
1772514780507180000,7.995179931640625,0.8747100830078125,0.7769215106964111,0.09191948175430298
1772514780517227000,8.00522705078125,0.7853431701660156,0.7508211135864258,0.14236325025558472
1772514780527272400,8.0152724609375,0.5831375122070312,0.7667644023895264,0.157781183719635
1772514780537318700,8.025318603515625,0.36782169342041016,0.7842521667480469,0.08923131227493286
1772514780547364000,8.035364013671876,0.22482013702392578,0.7289879322052002,0.02319633960723877
1772514780557428700,8.0454287109375,0.07712936401367188,0.6983585357666016,-0.07275301218032837
1772514780567476200,8.055476318359375,-0.08996295928955078,0.6793718338012695,-0.19342905282974243
1772514780577505800,8.065505859375,-0.15729999542236328,0.6347556114196777,-0.2909558415412903
1772514780587551500,8.075551513671876,-0.17286014556884766,0.631401538848877,-0.35067665576934814
1772514780597609500,8.085609375,-0.2129964828491211,0.7017395496368408,-0.4020226001739502
1772514780607656400,8.095656494140625,-0.2582521438598633,0.7392356395721436,-0.46511173248291016
1772514780617692000,8.10569189453125,-0.21768951416015625,0.7621517181396484,-0.4743208885192871
1772514780627737900,8.11573779296875,-0.09583187103271484,0.8262455463409424,-0.46838468313217163
1772514780637795800,8.1257958984375,-0.0020160675048828125,0.8860819339752197,-0.42383700609207153
1772514780647842800,8.1358427734375,0.026031494140625,0.9931328296661377,-0.474212646484375
1772514780657890600,8.145890625,0.09368610382080078,1.1521532535552979,-0.5417435765266418
1772514780667937500,8.1559375,0.11981487274169922,1.3250250816345215,-0.5957136154174805
1772514780677967600,8.165967529296875,-0.10088253021240234,1.4645922183990479,-0.6106600165367126
1772514780688013000,8.176012939453125,-0.34932518005371094,1.5455632209777832,-0.6706510782241821
1772514780698062000,8.18606201171875,-0.43604373931884766,1.5487372875213623,-0.7826716303825378
1772514780708107800,8.196107666015624,-0.5535526275634766,1.3774292469024658,-0.8161041140556335
1772514780718155500,8.206155517578125,-0.6556177139282227,1.0986096858978271,-0.7147250175476074
1772514780728201500,8.216201416015625,-0.4768810272216797,0.7185442447662354,-0.6370318531990051
1772514780738249700,8.226249755859374,0.09110164642333984,0.29320263862609863,-0.673699140548706
1772514780748296000,8.2362958984375,0.914912223815918,-0.11254477500915527,-0.7689038515090942
1772514780758341400,8.24634130859375,1.7055397033691406,-0.47784876823425293,-0.9125909805297852
1772514780768387600,8.2563876953125,2.2229795455932617,-0.8185420036315918,-1.0875089168548584
1772514780778431500,8.266431396484375,2.446568489074707,-1.1158047914505005,-1.2601677179336548
1772514780788477400,8.2764775390625,2.4308109283447266,-1.2327262163162231,-1.3270353078842163
1772514780798531600,8.286531494140625,2.2433652877807617,-1.300824761390686,-1.2238895893096924
1772514780808578300,8.296578369140626,1.9174156188964844,-1.2841838598251343,-0.8786507844924927
1772514780818618600,8.30661865234375,1.6338157653808594,-1.2116819620132446,-0.4620484411716461
1772514780828664600,8.31666455078125,1.3580513000488281,-1.1982170343399048,-0.065326988697052
1772514780838709500,8.32670947265625,1.0223798751831055,-1.2784253358840942,0.319828063249588
1772514780848755500,8.33675537109375,0.6931800842285156,-1.3451675176620483,0.5764220356941223
1772514780858805200,8.34680517578125,0.35593509674072266,-1.4079362154006958,0.8803713321685791
1772514780868851500,8.3568515625,-0.017670631408691406,-1.415566325187683,1.1907188892364502
1772514780878894600,8.36689453125,-0.41336917877197266,-1.3487824201583862,1.352060317993164
1772514780888940500,8.3769404296875,-0.7786712646484375,-1.3125776052474976,1.3626528978347778
1772514780898988500,8.386988525390626,-1.0708065032958984,-1.2826074361801147,1.2958061695098877
1772514780909035000,8.397034912109374,-1.313857078552246,-1.2635327577590942,1.1921604871749878
1772514780919092700,8.4070927734375,-1.6561527252197266,-1.154496431350708,1.0908687114715576
1772514780929140000,8.417139892578126,-1.9696226119995117,-0.961876392364502,0.9112246036529541
1772514780939175200,8.427175048828126,-2.1409244537353516,-0.7922604084014893,0.7331270575523376
1772514780949221400,8.437221435546874,-2.2143898010253906,-0.7766251564025879,0.562494695186615
1772514780959266800,8.447266845703124,-2.2818431854248047,-0.730963945388794,0.4504266381263733
1772514780969313000,8.45731298828125,-2.253446578979492,-0.6578388214111328,0.29946237802505493
1772514780979361000,8.467361083984375,-2.0727663040161133,-0.6702134609222412,0.10127529501914978
1772514780989407200,8.4774072265625,-1.6681241989135742,-0.7306146621704102,-0.053759828209877014
1772514780999452400,8.487452392578126,-1.2537603378295898,-0.85172438621521,-0.2615884840488434
1772514781009498600,8.49749853515625,-0.9429769515991211,-0.9270420074462891,-0.4802449643611908
1772514781019543800,8.507543701171874,-0.6530981063842773,-0.9119858741760254,-0.6417994499206543
1772514781029589800,8.51758984375,-0.31150054931640625,-0.9715859889984131,-0.7826007008552551
1772514781039638500,8.527638427734376,0.015727996826171875,-1.0127516984939575,-0.8994970917701721
1772514781049685000,8.53768505859375,0.3200836181640625,-1.0339118242263794,-0.941399097442627
1772514781059744000,8.547743896484375,0.5928211212158203,-0.9613066911697388,-0.893945574760437
1772514781069791500,8.55779150390625,0.6573343276977539,-0.8725248575210571,-0.8716015815734863
1772514781079824400,8.567824462890625,0.4894723892211914,-0.8327220678329468,-0.9555562734603882
1772514781089870300,8.577870361328126,0.2612180709838867,-0.7589566707611084,-1.0695792436599731
1772514781099913700,8.587913818359375,0.07717227935791016,-0.6444458961486816,-1.2430716753005981
1772514781109959700,8.597959716796876,0.018080711364746094,-0.5403909683227539,-1.3921765089035034
1772514781120023600,8.6080234375,-0.12153053283691406,-0.48577141761779785,-1.445556402206421
1772514781130071000,8.618071044921875,-0.28888797760009766,-0.40408945083618164,-1.518716812133789
1772514781140103400,8.628103515625,-0.3263702392578125,-0.299365758895874,-1.6386781930923462
1772514781150149600,8.638149658203124,-0.2198009490966797,-0.22434353828430176,-1.6926474571228027
1772514781160206600,8.64820654296875,-0.11242485046386719,-0.2137928009033203,-1.685176134109497
1772514781170253800,8.65825390625,-0.004199981689453125,-0.19130563735961914,-1.644193410873413
1772514781180297000,8.668296875,0.004376411437988281,-0.07062053680419922,-1.586575984954834
1772514781190343700,8.67834375,-0.1061563491821289,0.020509958267211914,-1.4039056301116943
1772514781200380700,8.688380615234376,-0.21701622009277344,0.15198326110839844,-1.2474961280822754
1772514781210426600,8.698426513671874,-0.22859477996826172,0.3355865478515625,-1.044753074645996
1772514781220473000,8.70847314453125,-0.17956161499023438,0.49077844619750977,-0.8483755588531494
1772514781230518800,8.718518798828125,-0.08890247344970703,0.5976970195770264,-0.6924070119857788
1772514781240552700,8.728552734375,-0.013818740844726562,0.6268835067749023,-0.4952378273010254
1772514781250597400,8.738597412109375,0.04098701477050781,0.7310750484466553,-0.33759695291519165
1772514781260670700,8.748670654296875,0.0946798324584961,0.8430075645446777,-0.22835946083068848
1772514781270718500,8.758718505859376,0.2048511505126953,0.9235935211181641,-0.08676338195800781
1772514781280749800,8.768749755859375,0.33825206756591797,0.985708475112915,0.04927796125411987
1772514781290795800,8.778795654296875,0.5477113723754883,1.0467333793640137,0.26150238513946533
1772514781300843300,8.78884326171875,0.8576107025146484,1.093980073928833,0.41576218605041504
1772514781310889500,8.798889404296874,0.9387340545654297,1.0854179859161377,0.547437846660614
1772514781320948500,8.808948486328125,0.7489070892333984,1.1197364330291748,0.5378301739692688
1772514781330995700,8.81899560546875,0.5658454895019531,1.1831867694854736,0.4186035394668579
1772514781341029400,8.829029296875,0.35121631622314453,1.1290624141693115,0.2975672483444214
1772514781351075600,8.83907568359375,0.14327049255371094,1.1399893760681152,0.25920355319976807
1772514781361119500,8.849119384765626,-0.06345939636230469,1.2087411880493164,0.32413846254348755
1772514781371165400,8.85916552734375,-0.3802223205566406,1.181764841079712,0.3738560676574707
1772514781381215200,8.86921533203125,-0.5490264892578125,1.2003672122955322,0.40046095848083496
1772514781391261700,8.87926171875,-0.5506629943847656,1.1928188800811768,0.35562437772750854
1772514781401308400,8.889308349609376,-0.29857921600341797,1.0615804195404053,0.10318773984909058
1772514781411354600,8.899354736328124,0.10277462005615234,0.7928466796875,-0.14614909887313843
1772514781421400000,8.909400146484375,0.29568004608154297,0.5499129295349121,-0.2972043752670288
1772514781431446300,8.9194462890625,0.24257183074951172,0.407517671585083,-0.4280339181423187
1772514781441473000,8.92947314453125,0.1724529266357422,0.3304290771484375,-0.5641481280326843
1772514781451517400,8.939517333984375,0.12238883972167969,0.2654123306274414,-0.5916639566421509
1772514781461576400,8.949576416015624,0.08204460144042969,0.20055770874023438,-0.589428186416626
1772514781471622400,8.959622314453124,0.041571617126464844,0.15115976333618164,-0.5760608911514282
1772514781481693200,8.969693115234374,0.0008373260498046875,0.1038200855255127,-0.5387520790100098
1772514781491741400,8.979741455078125,0.05038166046142578,0.12177920341491699,-0.445230096578598
1772514781501787000,8.989786865234375,0.1086568832397461,0.10467195510864258,-0.2803422212600708
1772514781511835000,8.9998349609375,0.12793445587158203,0.08530592918395996,-0.10035711526870728
1772514781521842400,9.009842529296876,0.21825122833251953,0.10645580291748047,0.09409725666046143
1772514781531886600,9.019886474609375,0.41813087463378906,0.13773250579833984,0.2205665111541748
1772514781541995800,9.029995849609374,0.4504241943359375,0.034207820892333984,0.35870879888534546
1772514781552046300,9.04004638671875,0.43508148193359375,0.0012056827545166016,0.49395668506622314
1772514781562063600,9.050063720703125,0.6635570526123047,0.06723642349243164,0.6218432784080505
1772514781572110800,9.06011083984375,0.7963352203369141,0.0633244514465332,0.7113053202629089
1772514781582155800,9.07015576171875,0.6617059707641602,0.0935068130493164,0.7286046147346497
1772514781592202800,9.08020263671875,0.3792409896850586,0.30320096015930176,0.5592405200004578
1772514781602248400,9.09024853515625,0.20662307739257812,0.4479672908782959,0.3739820718765259
1772514781612295200,9.100295166015625,0.1530923843383789,0.4250493049621582,0.37541908025741577
1772514781622320600,9.110320556640625,0.08475685119628906,0.44042229652404785,0.5355021953582764
1772514781632365300,9.120365234375,0.1304645538330078,0.5714938640594482,0.7315114140510559
1772514781642418200,9.130418212890625,0.3755064010620117,0.5234589576721191,0.8477423191070557
1772514781652463600,9.140463623046875,0.7805137634277344,0.23570489883422852,0.8899607062339783
1772514781662516700,9.150516845703125,1.2494831085205078,-0.13030171394348145,0.7986239194869995
1772514781672563000,9.16056298828125,1.6157054901123047,-0.5022151470184326,0.4618561267852783
1772514781682613800,9.17061376953125,1.8186235427856445,-0.9044145345687866,-0.05114823579788208
1772514781692660500,9.180660400390625,1.864985466003418,-1.2464869022369385,-0.4653256833553314
1772514781702710300,9.190710205078124,1.5645208358764648,-1.5639865398406982,-0.760080873966217
1772514781712757200,9.20075732421875,1.0035524368286133,-1.7735806703567505,-1.0267255306243896
1772514781722804200,9.21080419921875,0.43062782287597656,-1.7480744123458862,-1.212669849395752
1772514781732851500,9.2208515625,0.17072010040283203,-1.576719045639038,-1.1608977317810059
1772514781742883300,9.23088330078125,0.10943603515625,-1.4528875350952148,-0.7796323299407959
1772514781752929000,9.240928955078125,0.027625083923339844,-1.322413682937622,-0.2105380892753601
1772514781762991600,9.25099169921875,-0.23686599731445312,-1.0526961088180542,0.39674246311187744
1772514781773038800,9.261038818359374,-0.6178140640258789,-0.7271559238433838,0.8625493049621582
1772514781783067400,9.2710673828125,-0.983281135559082,-0.45459532737731934,1.1556297540664673
1772514781793112800,9.28111279296875,-1.2877445220947266,-0.3439772129058838,1.2451623678207397
1772514781803161300,9.291161376953125,-1.423172950744629,-0.31920886039733887,1.054417610168457
1772514781813207000,9.30120703125,-1.4144821166992188,-0.43621253967285156,0.6952435374259949
1772514781823251500,9.31125146484375,-1.314082145690918,-0.6052985191345215,0.3574470281600952
1772514781833297200,9.321297119140626,-1.1062602996826172,-0.7680974006652832,0.07369303703308105
1772514781843346200,9.33134619140625,-0.9182701110839844,-0.8529684543609619,-0.15801149606704712
1772514781853392100,9.34139208984375,-0.8488044738769531,-0.9167190790176392,-0.3231346011161804
1772514781863440600,9.351440673828124,-0.7677993774414062,-0.9376503229141235,-0.4289580285549164
1772514781873486800,9.36148681640625,-0.7036733627319336,-0.8545281887054443,-0.4904175400733948
1772514781883531300,9.37153125,-0.723210334777832,-0.7154316902160645,-0.5073901414871216
1772514781893577200,9.3815771484375,-0.8410606384277344,-0.5666930675506592,-0.48806387186050415
1772514781903623200,9.391623046875,-0.9961557388305664,-0.41426825523376465,-0.42983296513557434
1772514781913669000,9.401669189453125,-1.1521387100219727,-0.20033478736877441,-0.3816598653793335
1772514781923729000,9.41172900390625,-1.1580686569213867,-0.04912281036376953,-0.37805062532424927
1772514781933776400,9.4217763671875,-0.9484653472900391,-0.05817365646362305,-0.43184953927993774
1772514781943811300,9.431811279296875,-0.5622835159301758,-0.17377877235412598,-0.4958939850330353
1772514781953857300,9.441857177734375,-0.10936164855957031,-0.2919888496398926,-0.5364785194396973
1772514781963901700,9.451901611328125,0.40151214599609375,-0.3629920482635498,-0.5535695552825928
1772514781973947600,9.46194775390625,0.9617557525634766,-0.4382491111755371,-0.6227734088897705
1772514781984003000,9.472003173828124,1.4198379516601562,-0.6515872478485107,-0.73320072889328
1772514781994050000,9.482050048828125,1.609914779663086,-0.9065264463424683,-0.9304261803627014
1772514782004086800,9.492086669921875,1.4328193664550781,-1.0668097734451294,-1.1589900255203247
1772514782014132700,9.5021328125,0.9845829010009766,-1.0789657831192017,-1.3743257522583008
1772514782024178700,9.5121787109375,0.5136756896972656,-0.9689003229141235,-1.497794508934021
1772514782034224600,9.522224609375,0.1633148193359375,-0.8495768308639526,-1.5814862251281738
1772514782044273000,9.53227294921875,-0.10472679138183594,-0.8213497400283813,-1.6330856084823608
1772514782054319000,9.542319091796875,-0.29015445709228516,-0.7797838449478149,-1.6085972785949707
1772514782064377300,9.55237744140625,-0.46439075469970703,-0.7214490175247192,-1.5722674131393433
1772514782074400500,9.562400390625,-0.7325477600097656,-0.6322839260101318,-1.514470100402832
1772514782094495200,9.5824951171875,-1.3085699081420898,-0.40187788009643555,-1.4285016059875488
1772514782104559000,9.59255908203125,-1.526717185974121,-0.2855825424194336,-1.3445813655853271
1772514782114607900,9.60260791015625,-1.4828357696533203,-0.14446735382080078,-1.2408571243286133
1772514782124648400,9.6126484375,-1.3209171295166016,-0.07393407821655273,-1.0322977304458618
1772514782134696200,9.6226962890625,-1.117234230041504,-0.0038993358612060547,-0.8048698902130127
1772514782144735000,9.63273486328125,-0.9383678436279297,0.11664009094238281,-0.6597687602043152
1772514782154782000,9.642781982421875,-0.7745456695556641,0.16268420219421387,-0.5732747316360474
1772514782164828700,9.65282861328125,-0.6018924713134766,0.14886760711669922,-0.5588494539260864
1772514782174876000,9.6628759765625,-0.2963438034057617,0.13788199424743652,-0.5384523272514343
1772514782184919800,9.672919921875,0.003509521484375,0.10962343215942383,-0.447870671749115
1772514782194966500,9.682966552734374,0.30777549743652344,0.16216516494750977,-0.2911536693572998
1772514782205015600,9.693015625,0.5596904754638672,0.25925683975219727,-0.12639795243740082
1772514782215062500,9.7030625,0.7072687149047852,0.40811681747436523,-0.0072769783437252045
1772514782225107700,9.713107666015626,0.736485481262207,0.4647397994995117,0.04203306883573532
1772514782235154700,9.72315478515625,0.7286291122436523,0.4777519702911377,0.035562846809625626
1772514782245201400,9.733201416015625,0.7503938674926758,0.5342601537704468,0.08275610208511353
1772514782255248100,9.743248046875,0.8398170471191406,0.6106061935424805,0.1789788007736206
1772514782265294300,9.75329443359375,0.9776391983032227,0.6397029161453247,0.24806906282901764
1772514782275341000,9.763341064453124,1.121023178100586,0.6489343643188477,0.31989291310310364
1772514782285394700,9.773394775390624,1.160369873046875,0.6799335479736328,0.3706291615962982
1772514782295442200,9.783442138671875,1.0914287567138672,0.7074503898620605,0.4773171544075012
1772514782305477600,9.7934775390625,0.9766607284545898,0.817083477973938,0.5838053226470947
1772514782315523800,9.80352392578125,0.73004150390625,0.9331756830215454,0.6399174332618713
1772514782325569500,9.813569580078125,0.3466196060180664,1.0105594396591187,0.6145317554473877
1772514782335615700,9.82361572265625,0.0744028091430664,1.0719389915466309,0.5449700355529785
1772514782345666000,9.833666015625,-0.030028343200683594,1.1434330940246582,0.4863554835319519
1772514782355712800,9.843712646484375,-0.053009033203125,1.1674103736877441,0.45166856050491333
1772514782365766000,9.853765869140625,-0.023305892944335938,1.1578917503356934,0.41058480739593506
1772514782375813000,9.863813232421874,-0.017228126525878906,1.1425526142120361,0.3429930508136749
1772514782385858300,9.8738583984375,0.008312225341796875,1.0831010341644287,0.2763445973396301
1772514782395905500,9.883905517578125,0.0245361328125,1.0134918689727783,0.26809772849082947
1772514782405948400,9.893948486328124,-0.03568458557128906,1.0305149555206299,0.291056364774704
1772514782415995100,9.9039951171875,-0.005560874938964844,1.0742487907409668,0.33201149106025696
1772514782426033700,9.91403369140625,0.10462474822998047,1.0748937129974365,0.3976765275001526
1772514782436079400,9.924079345703126,0.19890403747558594,1.014190912246704,0.4800828695297241
1772514782446126000,9.9341259765625,0.32500267028808594,1.026108980178833,0.48510676622390747
1772514782456172000,9.944172119140624,0.49724578857421875,0.9619691371917725,0.45560434460639954
1772514782466217700,9.9542177734375,0.7109708786010742,0.8161699771881104,0.3730770945549011
1772514782476263700,9.964263671875,0.93804931640625,0.648395299911499,0.20450977981090546
1772514782486310700,9.974310546875,1.083756446838379,0.4935183525085449,-0.011256866157054901
1772514782496356600,9.984356689453126,1.0774831771850586,0.3195610046386719,-0.3081853985786438
1772514782506405400,9.9944052734375,0.8723888397216797,0.21055197715759277,-0.5926498770713806
1772514782516451800,10.004451904296875,0.5265007019042969,0.19440984725952148,-0.8202603459358215
1772514782526506500,10.014506591796875,0.14501667022705078,0.3580665588378906,-0.956065833568573
1772514782536553700,10.0245537109375,-0.2913961410522461,0.6022264957427979,-1.0358847379684448
1772514782546589400,10.03458935546875,-0.7068624496459961,0.7719190120697021,-1.01488196849823
1772514782556635400,10.044635498046874,-1.0071134567260742,0.8243405818939209,-0.9579271078109741
1772514782566679600,10.054679443359374,-1.0410089492797852,0.8701488971710205,-0.914804220199585
1772514782576725500,10.0647255859375,-0.9298629760742188,0.8419215679168701,-0.8919960260391235
1772514782586773800,10.074773681640625,-0.6410064697265625,0.7648148536682129,-0.8089070916175842
1772514782596819700,10.08481982421875,-0.26032447814941406,0.6653778553009033,-0.7729873061180115
1772514782606867700,10.09486767578125,0.1506671905517578,0.535858154296875,-0.8169180750846863
1772514782616914200,10.1049140625,0.5309381484985352,0.3722062110900879,-0.8936218023300171
1772514782626958600,10.11495849609375,0.7097873687744141,0.23707103729248047,-1.095190405845642
1772514782637004800,10.1250048828125,0.8363752365112305,0.11396431922912598,-1.3238012790679932
1772514782647065900,10.13506591796875,0.9112319946289062,-0.03681015968322754,-1.4719618558883667
1772514782657113300,10.14511328125,0.8822202682495117,-0.1541147232055664,-1.5034031867980957
1772514782667143700,10.155143798828124,0.8070659637451172,-0.27680063247680664,-1.3958524465560913
1772514782677189600,10.165189697265625,0.7813396453857422,-0.32806944847106934,-1.102837085723877
1772514782687256300,10.17525634765625,0.7379636764526367,-0.33168959617614746,-0.709365725517273
1772514782697304300,10.18530419921875,0.5622520446777344,-0.31624484062194824,-0.26036128401756287
1772514782707310800,10.195310791015626,0.30174922943115234,-0.28945159912109375,0.18525931239128113
1772514782717354800,10.205354736328125,0.08018016815185547,-0.2873539924621582,0.5691215395927429
1772514782727406800,10.21540673828125,-0.007517814636230469,-0.35138821601867676,0.8227253556251526
1772514782737451500,10.225451416015625,0.13388824462890625,-0.4960167407989502,0.904255747795105
1772514782747532800,10.23553271484375,0.26114654541015625,-0.7196673154830933,0.7995303273200989
1772514782757581000,10.2455810546875,0.27036476135253906,-0.9495943784713745,0.6161202192306519
1772514782767625000,10.255625,0.057328224182128906,-1.134800672531128,0.49499064683914185
1772514782777673000,10.2656728515625,-0.3345317840576172,-1.1644926071166992,0.4664050042629242
1772514782787719700,10.2757197265625,-0.7001028060913086,-1.1027666330337524,0.5409731864929199
1772514782797767400,10.285767333984374,-0.9686994552612305,-1.0562905073165894,0.6974974870681763
1772514782807776300,10.2957763671875,-1.141550064086914,-1.050315260887146,0.797650158405304
1772514782817820200,10.305820068359376,-1.2913188934326172,-1.039354681968689,0.8875763416290283
1772514782827901000,10.31590087890625,-1.4189653396606445,-1.0205966234207153,0.9265826344490051
1772514782837948400,10.325948486328125,-1.4202585220336914,-1.044129490852356,0.8831424713134766
1772514782847961600,10.335961669921875,-1.3387155532836914,-1.1187695264816284,0.7301841974258423
1772514782858005800,10.346005859375,-1.174478530883789,-1.2206319570541382,0.5621913075447083
1772514782868071700,10.35607177734375,-0.9940710067749023,-1.3036093711853027,0.40554603934288025
1772514782878118000,10.366117919921875,-0.7966527938842773,-1.3563542366027832,0.30881765484809875
1772514782888178200,10.37617822265625,-0.6770305633544922,-1.3482322692871094,0.2690582275390625
1772514782898226000,10.386225830078125,-0.5197668075561523,-1.3390662670135498,0.12084421515464783
1772514782908257000,10.396257080078126,-0.48199939727783203,-1.4123830795288086,-0.05637452006340027
1772514782918303200,10.40630322265625,-0.5728721618652344,-1.382258415222168,-0.10050156712532043
1772514782928359400,10.416359375,-0.7445535659790039,-1.2718560695648193,-0.06261877715587616
1772514782938406700,10.42640673828125,-0.8637428283691406,-1.0501333475112915,0.14627526700496674
1772514782948443600,10.436443603515626,-0.7686529159545898,-0.758219838142395,0.4351623058319092
1772514782958489900,10.44648974609375,-0.6557397842407227,-0.5866471529006958,0.5904383063316345
1772514782968536600,10.45653662109375,-0.5677728652954102,-0.5359236001968384,0.5861915946006775
1772514782978582500,10.46658251953125,-0.5807342529296875,-0.5116292238235474,0.5119142532348633
1772514782988639500,10.476639404296876,-0.6319856643676758,-0.48620307445526123,0.383102148771286
1772514782998686700,10.486686767578124,-0.6928176879882812,-0.45476233959198,0.2680075764656067
1772514783008719600,10.4967197265625,-0.6773786544799805,-0.4310859441757202,0.15947000682353973
1772514783018765600,10.506765625,-0.6289339065551758,-0.45295989513397217,0.055920034646987915
1772514783028813600,10.5168134765625,-0.5236730575561523,-0.43423521518707275,0.022795043885707855
1772514783038859500,10.526859619140625,-0.1562957763671875,-0.341572642326355,0.14105205237865448
1772514783048905500,10.536905517578125,0.2580757141113281,-0.3011091947555542,0.3084889352321625
1772514783058951700,10.54695166015625,0.4334554672241211,-0.2250586748123169,0.4685935378074646
1772514783068997600,10.55699755859375,0.45184993743896484,-0.07651591300964355,0.5480042099952698
1772514783079043800,10.5670439453125,0.5522336959838867,0.1451207399368286,0.5987757444381714
1772514783089090300,10.57709033203125,0.5480747222900391,0.21515798568725586,0.6405524015426636
1772514783099136500,10.587136474609375,0.39197540283203125,0.22399210929870605,0.625484049320221
1772514783109184000,10.59718408203125,0.3517160415649414,0.29615020751953125,0.5114490985870361
1772514783119230200,10.607230224609374,0.30774879455566406,0.34924376010894775,0.4193524718284607
1772514783129275000,10.61727490234375,0.1169595718383789,0.33443987369537354,0.39037805795669556
1772514783139320800,10.62732080078125,-0.06759452819824219,0.36238253116607666,0.34180474281311035
1772514783149368600,10.63736865234375,-0.23664188385009766,0.3674238920211792,0.31221023201942444
1772514783159414800,10.647414794921875,-0.3474597930908203,0.3795100450515747,0.3413580656051636
1772514783169461500,10.65746142578125,-0.45758628845214844,0.3894937038421631,0.39289262890815735
1772514783179507700,10.6675078125,-0.5623054504394531,0.44546008110046387,0.4341694116592407
1772514783189565400,10.6775654296875,-0.604466438293457,0.5242350101470947,0.4944521486759186
1772514783199613000,10.687613037109376,-0.6320133209228516,0.5637631416320801,0.5740951299667358
1772514783209646300,10.697646240234375,-0.6640253067016602,0.6259359121322632,0.6384758949279785
1772514783219692300,10.7076923828125,-0.7147426605224609,0.7104017734527588,0.6525419354438782
1772514783229739300,10.7177392578125,-0.6790456771850586,0.8029811382293701,0.6726009845733643
1772514783239785200,10.72778515625,-0.6431255340576172,0.8894273042678833,0.7037677764892578
1772514783249834500,10.73783447265625,-0.6405696868896484,0.9323474168777466,0.6758697628974915
1772514783259881000,10.747880859375,-0.6525402069091797,0.9669972658157349,0.5911184549331665
1772514783269925400,10.75792529296875,-0.5598745346069336,1.047346591949463,0.5074093341827393
1772514783279971600,10.7679716796875,-0.41071128845214844,1.0544716119766235,0.5105568766593933
1772514783290018800,10.778018798828125,-0.27689647674560547,1.1413742303848267,0.511621356010437
1772514783300065300,10.788065185546875,-0.09644889831542969,1.1937814950942993,0.4256053864955902
1772514783310113300,10.79811328125,0.1734781265258789,1.1260887384414673,0.3042755126953125
1772514783320159700,10.80815966796875,0.5090703964233398,1.0900378227233887,0.2041681408882141
1772514783330205200,10.818205078125,0.872462272644043,1.030508041381836,0.09527000784873962
1772514783340251400,10.82825146484375,1.2259464263916016,0.9494208097457886,-0.014178723096847534
1772514783350295800,10.8382958984375,1.5461149215698242,0.8488067388534546,-0.15662051737308502
1772514783360342000,10.848342041015625,1.6516761779785156,0.880213737487793,-0.3010384440422058
1772514783370404600,10.858404541015625,1.4187593460083008,0.9728273153305054,-0.27555209398269653
1772514783380452400,10.868452392578124,1.1867761611938477,0.9066460132598877,-0.14922070503234863
1772514783390491600,10.87849169921875,1.1461811065673828,0.8156594038009644,0.06816571950912476
1772514783400538600,10.88853857421875,1.3292760848999023,0.8185989856719971,0.31427323818206787
1772514783410589200,10.898589111328125,1.8020963668823242,0.6781824827194214,0.485352098941803
1772514783420636400,10.908636474609375,2.482851982116699,0.307611346244812,0.5425294041633606
1772514783430668800,10.918668701171875,3.271121025085449,-0.11014997959136963,0.654766857624054
1772514783440714800,10.92871484375,4.0335893630981445,-0.5388103723526001,0.6952616572380066
1772514783450761200,10.93876123046875,4.384383201599121,-0.7682764530181885,0.6672680974006653
1772514783460807200,10.94880712890625,4.062734603881836,-0.8259114027023315,0.4740457534790039
1772514783470851000,10.95885107421875,3.2286205291748047,-0.8095802068710327,0.10633563995361328
1772514783480896800,10.968896728515626,2.112696647644043,-0.839780330657959,-0.1525159478187561
1772514783490926800,10.9789267578125,1.0258293151855469,-0.795636773109436,-0.3112565279006958
1772514783500971000,10.988970947265624,0.21113109588623047,-0.6575838327407837,-0.39663630723953247
1772514783511037400,10.999037353515625,-0.361236572265625,-0.5170409679412842,-0.36615559458732605
1772514783521084000,11.009083984375,-0.7018823623657227,-0.4621694087982178,-0.2593986392021179
1772514783531128800,11.01912890625,-0.8069210052490234,-0.5490008592605591,-0.18441614508628845
1772514783541175000,11.029175048828124,-0.9063634872436523,-0.7061382532119751,-0.09737300872802734
1772514783551224000,11.03922412109375,-1.0147781372070312,-0.7951102256774902,-0.045715928077697754
1772514783561270500,11.0492705078125,-1.046259880065918,-0.7828054428100586,-0.07028454542160034
1772514783571313200,11.059313232421875,-1.1491460800170898,-0.8136169910430908,-0.1908125877380371
1772514783581359400,11.069359375,-1.4142532348632812,-0.844202995300293,-0.3902795910835266
1772514783591418600,11.079418701171875,-1.7508907318115234,-0.8389034271240234,-0.5839551687240601
1772514783601466000,11.089466064453125,-2.0446882247924805,-0.7950891256332397,-0.7139014005661011
1772514783611499500,11.09949951171875,-2.185999870300293,-0.7255622148513794,-0.7668034434318542
1772514783621545700,11.109545654296875,-2.022427558898926,-0.6623884439468384,-0.743436872959137
1772514783631610000,11.119610107421876,-1.7311525344848633,-0.6589382886886597,-0.6886112689971924
1772514783641658000,11.129658203125,-1.4462518692016602,-0.7537111043930054,-0.6764695644378662
1772514783651695900,11.13969580078125,-1.1346282958984375,-0.8455251455307007,-0.7371631860733032
1772514783661742600,11.14974267578125,-0.787353515625,-0.9195207357406616,-0.7170596718788147
1772514783671778000,11.159778076171875,-0.4096412658691406,-0.9330307245254517,-0.6166578531265259
1772514783681823700,11.16982373046875,0.0031232833862304688,-0.9731287956237793,-0.4523206055164337
1772514783691869400,11.179869384765626,0.33190250396728516,-1.018460988998413,-0.2991687059402466
1772514783701915100,11.1899150390625,0.48663902282714844,-1.0566554069519043,-0.23396646976470947
1772514783711979000,11.19997900390625,0.6688756942749023,-1.0838298797607422,-0.32164180278778076
1772514783722026500,11.210026611328125,0.8597288131713867,-1.1866376399993896,-0.4963242709636688
1772514783732056600,11.220056640625,1.0546464920043945,-1.2755241394042969,-0.5468054413795471
1772514783742102300,11.230102294921876,1.1822023391723633,-1.31905198097229,-0.5189391374588013
1772514783752149500,11.2401494140625,1.0564393997192383,-1.319340705871582,-0.4958787262439728
1772514783762195500,11.250195556640625,0.7067747116088867,-1.2057387828826904,-0.4623619019985199
1772514783772239400,11.2602392578125,0.2675132751464844,-1.03953218460083,-0.41107863187789917
1772514783782285300,11.270285400390625,-0.09395503997802734,-0.9479446411132812,-0.3268808126449585
1772514783792334800,11.2803349609375,-0.47342491149902344,-0.8677382469177246,-0.26844823360443115
1772514783802381000,11.290381103515625,-0.8996458053588867,-0.7358280420303345,-0.3367072641849518
1772514783812427800,11.300427734375,-1.243851661682129,-0.5978754758834839,-0.4811173379421234
1772514783822474000,11.310473876953125,-1.3633861541748047,-0.5561157464981079,-0.547061026096344
1772514783832519000,11.320518798828125,-1.3496427536010742,-0.5718821287155151,-0.525190532207489
1772514783842565000,11.330565185546876,-1.3844385147094727,-0.5168250799179077,-0.5380135178565979
1772514783852595000,11.340594970703124,-1.3434362411499023,-0.3765305280685425,-0.557978630065918
1772514783862639400,11.350639404296874,-1.0930633544921875,-0.3228718042373657,-0.4908956289291382
1772514783872720600,11.360720703125,-0.9393701553344727,-0.29011380672454834,-0.36811593174934387
1772514783882769000,11.370768798828125,-0.8485002517700195,-0.13623261451721191,-0.3070918023586273
1772514783892814300,11.380814453125,-0.6054697036743164,0.057578325271606445,-0.2780126631259918
1772514783902862300,11.3908623046875,-0.2630147933959961,0.028001070022583008,-0.24324515461921692
1772514783912906800,11.40090673828125,-0.1503152847290039,-0.03158998489379883,-0.2593381702899933
1772514783922954200,11.410954345703125,-0.2187185287475586,0.03079390525817871,-0.3759317398071289
1772514783933001200,11.421001220703126,-0.2528715133666992,0.10584878921508789,-0.5484114289283752
1772514783943048700,11.431048583984374,-0.23409652709960938,0.12817740440368652,-0.6241031885147095
1772514783953090600,11.441090576171876,-0.14839935302734375,0.11763381958007812,-0.6069693565368652
1772514783963137500,11.451137451171874,0.1376476287841797,0.1463686227798462,-0.5774039030075073
1772514783973188000,11.46118798828125,0.43293094635009766,0.15453720092773438,-0.5628756284713745
1772514783983235300,11.4712353515625,0.5757255554199219,0.13844192028045654,-0.514333963394165
1772514783993281300,11.48128125,0.5956439971923828,0.21482419967651367,-0.4808819890022278
1772514784003328300,11.491328369140625,0.5074357986450195,0.344524621963501,-0.4098747670650482
1772514784013335000,11.5013349609375,0.272857666015625,0.5001493692398071,-0.3249199688434601
1772514784023378200,11.511378173828126,0.09685516357421875,0.642600417137146,-0.297323077917099
1772514784033461800,11.521461669921875,0.14578723907470703,0.7561995983123779,-0.25090569257736206
1772514784043509000,11.531509033203125,0.25672340393066406,0.8264522552490234,-0.1708751618862152
1772514784053538600,11.54153857421875,0.2960500717163086,0.8904235363006592,-0.07704459130764008
1772514784063583700,11.551583740234374,0.2353191375732422,0.9671658277511597,-0.04151560366153717
1772514784073632300,11.56163232421875,0.21768569946289062,1.0633437633514404,-0.06941448152065277
1772514784083678000,11.571677978515625,0.4051780700683594,1.0893781185150146,-0.03647260367870331
1772514784093725000,11.581724853515626,0.5248880386352539,1.0169830322265625,0.06997799873352051
1772514784103771000,11.59177099609375,0.7540035247802734,1.02667236328125,0.13880588114261627
1772514784113818600,11.601818603515625,0.9449596405029297,1.052898645401001,0.16220009326934814
1772514784123864600,11.611864501953125,1.0458898544311523,0.9641389846801758,0.13408897817134857
1772514784133910300,11.62191015625,1.0426740646362305,0.8704540729522705,0.07131518423557281
1772514784143956200,11.631956298828126,0.9160671234130859,0.7496228218078613,-0.013608619570732117
1772514784154014000,11.642013916015625,0.751861572265625,0.6229503154754639,-0.09486496448516846
1772514784164061000,11.65206103515625,0.6644220352172852,0.5303635597229004,-0.16774378716945648
1772514784174094800,11.6620947265625,0.6678571701049805,0.4768862724304199,-0.20078064501285553
1772514784184140500,11.672140625,0.714421272277832,0.3946800231933594,-0.2108202576637268
1772514784194189600,11.682189453125,0.7375583648681641,0.2773592472076416,-0.1947682499885559
1772514784204235800,11.69223583984375,0.7184381484985352,0.2913033962249756,-0.2147795706987381
1772514784214281500,11.702281494140625,0.6381187438964844,0.45508837699890137,-0.27478092908859253
1772514784224327700,11.71232763671875,0.40099430084228516,0.573514461517334,-0.29269641637802124
1772514784234384600,11.722384521484376,0.12152481079101562,0.4677705764770508,-0.2536221146583557
1772514784244432000,11.732431884765624,0.04730796813964844,0.32352232933044434,-0.2512436509132385
1772514784254475300,11.742475341796874,0.0674905776977539,0.26666712760925293,-0.16326026618480682
1772514784264522000,11.75252197265625,0.05727577209472656,0.17400455474853516,0.0025930851697921753
1772514784274560000,11.76256005859375,0.10722732543945312,0.05130767822265625,0.10798297822475433
1772514784284606000,11.77260595703125,0.30786800384521484,-0.08683395385742188,0.10172964632511139
1772514784294652400,11.78265234375,0.5828723907470703,-0.2853574752807617,0.08644124865531921
1772514784304698400,11.792698486328124,0.7947072982788086,-0.46283388137817383,-0.007505595684051514
1772514784314742800,11.80274267578125,0.8253297805786133,-0.538347601890564,-0.11558982729911804
1772514784324788700,11.812788818359374,0.61883544921875,-0.5350631475448608,-0.19984734058380127
1772514784334818800,11.82281884765625,0.2717008590698242,-0.48749828338623047,-0.2792906165122986
1772514784344863200,11.83286328125,-0.08189868927001953,-0.3809537887573242,-0.35985153913497925
1772514784354930000,11.842929931640626,-0.3509330749511719,-0.28684234619140625,-0.3980853259563446
1772514784364976400,11.852976318359374,-0.47702884674072266,-0.28834033012390137,-0.31489187479019165
1772514784375021300,11.863021240234374,-0.46273136138916016,-0.3257908821105957,-0.0842638611793518
1772514784385067500,11.873067626953125,-0.2591238021850586,-0.358412504196167,0.26702290773391724
1772514784395113700,11.88311376953125,0.17249393463134766,-0.42223429679870605,0.6443240642547607
1772514784405160000,11.893159912109375,0.521937370300293,-0.6022665500640869,1.0059629678726196
1772514784415221800,11.9032216796875,0.6152286529541016,-0.7625724077224731,1.2134101390838623
1772514784425269500,11.91326953125,0.6646194458007812,-0.7556568384170532,1.3118112087249756
1772514784435300400,11.92330029296875,0.7512044906616211,-0.7637853622436523,1.3503271341323853
1772514784445346300,11.93334619140625,0.6459341049194336,-0.8458720445632935,1.3102580308914185
1772514784455404000,11.943404052734374,0.30193614959716797,-0.9452720880508423,1.060621738433838
1772514784465451300,11.953451171875,-0.12749385833740234,-0.9978371858596802,0.6926750540733337
1772514784475486200,11.963486328125,-0.40349388122558594,-1.0536326169967651,0.3001899719238281
1772514784485532400,11.973532470703125,-0.5456171035766602,-1.1545299291610718,-0.06768512725830078
1772514784495579000,11.983578857421875,-0.6165847778320312,-1.2417813539505005,-0.3604387640953064
1772514784505624800,11.993624755859376,-0.6219272613525391,-1.3137861490249634,-0.5113351345062256
1772514784515673600,12.003673583984375,-0.5051126480102539,-1.3312422037124634,-0.6088125705718994
1772514784525719800,12.0137197265625,-0.3381786346435547,-1.3521603345870972,-0.7549924850463867
1772514784535779300,12.023779296875,-0.307403564453125,-1.439653754234314,-0.9086620807647705
1772514784545826800,12.033826904296875,-0.2883281707763672,-1.4881657361984253,-1.0552409887313843
1772514784555855600,12.043855712890625,-0.2854318618774414,-1.5171027183532715,-1.206453561782837
1772514784565901600,12.053901611328126,-0.25015830993652344,-1.5423479080200195,-1.2798895835876465
1772514784575949300,12.06394921875,-0.07183837890625,-1.5085313320159912,-1.3091775178909302
1772514784585995300,12.073995361328125,0.06385993957519531,-1.4712176322937012,-1.267824649810791
1772514784596040000,12.0840400390625,0.062369346618652344,-1.3997033834457397,-1.2430942058563232
1772514784606086000,12.0940859375,-0.03267860412597656,-1.2329179048538208,-1.1742663383483887
1772514784616122400,12.104122314453125,-0.16919326782226562,-1.0362154245376587,-1.0689640045166016
1772514784626167000,12.1141669921875,-0.2670745849609375,-0.8208153247833252,-0.9423350691795349
1772514784636228900,12.124228759765625,-0.25555419921875,-0.6564016342163086,-0.8102474212646484
1772514784646275600,12.134275634765626,-0.2640094757080078,-0.5093283653259277,-0.6747286319732666
1772514784656331500,12.14433154296875,-0.3448963165283203,-0.3892958164215088,-0.5635252594947815
1772514784666379000,12.15437890625,-0.4738645553588867,-0.282543420791626,-0.5737390518188477
1772514784676414200,12.164414306640625,-0.5982389450073242,-0.24128079414367676,-0.7124589681625366
1772514784686460400,12.17446044921875,-0.6798248291015625,-0.17902112007141113,-0.7770476341247559
1772514784696503800,12.18450390625,-0.7189350128173828,-0.1094198226928711,-0.8213329911231995
1772514784706549800,12.1945498046875,-0.5822782516479492,-0.02181720733642578,-0.8078605532646179
1772514784716599000,12.20459912109375,-0.3417034149169922,0.07809734344482422,-0.6494925618171692
1772514784726645500,12.2146455078125,-0.15459823608398438,0.15515923500061035,-0.49311745166778564
1772514784736692200,12.224692138671875,0.07988262176513672,0.2605552673339844,-0.4235106110572815
1772514784746738700,12.23473876953125,0.2855691909790039,0.28773975372314453,-0.3762703537940979
1772514784756794000,12.244794189453126,0.28620433807373047,0.2976052761077881,-0.37441468238830566
1772514784766841300,12.25484130859375,0.23521804809570312,0.3139376640319824,-0.49065476655960083
1772514784776873200,12.264873291015626,0.15186595916748047,0.26997900009155273,-0.6507886052131653
1772514784786919200,12.274919189453126,0.08395576477050781,0.22356152534484863,-0.7479256987571716
1772514784796969500,12.284969482421875,0.17961406707763672,0.19852685928344727,-0.8141785860061646
1772514784807015700,12.295015625,0.38155364990234375,0.18398642539978027,-0.7648015022277832
1772514784817063000,12.30506298828125,0.4655027389526367,0.19253778457641602,-0.6259250640869141
1772514784827109400,12.315109375,0.4460163116455078,0.2623739242553711,-0.4802287220954895
1772514784837167000,12.3251669921875,0.31322574615478516,0.3376479148864746,-0.32913416624069214
1772514784847214600,12.335214599609374,0.1763315200805664,0.4020979404449463,-0.19959256052970886
1772514784857256200,12.345256103515625,0.09175682067871094,0.46797776222229004,-0.11419834196567535
1772514784867303000,12.355302978515626,0.14989948272705078,0.5312786102294922,-0.04551428556442261
1772514784877338400,12.36533837890625,0.24547863006591797,0.4913794994354248,0.047531843185424805
1772514784887384000,12.375384033203124,0.321319580078125,0.4194471836090088,0.08344867825508118
1772514784897432000,12.38543212890625,0.38707542419433594,0.34880638122558594,0.062378644943237305
1772514784907478000,12.39547802734375,0.5383510589599609,0.26018571853637695,0.07992535829544067
1772514784917525000,12.40552490234375,0.6269159317016602,0.2104501724243164,0.08571696281433105
1772514784927571200,12.4155712890625,0.719569206237793,0.17599058151245117,0.12006315588951111
1772514784937617200,12.4256171875,0.7972297668457031,0.14199495315551758,0.16123846173286438
1772514784947663000,12.4356630859375,0.8461780548095703,0.14027070999145508,0.22770991921424866
1772514784957708000,12.4457080078125,0.7096681594848633,0.15412116050720215,0.29985859990119934
1772514784967754000,12.45575390625,0.5080089569091797,0.1873466968536377,0.3472040593624115
1772514784977801700,12.4658017578125,0.23194026947021484,0.23532700538635254,0.35658079385757446
1772514784987848000,12.475847900390624,-0.013367652893066406,0.2986726760864258,0.43572601675987244
1772514784997879000,12.485879150390625,-0.19944286346435547,0.35880613327026367,0.5445269346237183
1772514785007923500,12.49592333984375,-0.28824615478515625,0.4159669876098633,0.6054916977882385
1772514785017989400,12.5059892578125,-0.32792186737060547,0.3798246383666992,0.7050713300704956
1772514785028036000,12.5160361328125,-0.3955726623535156,0.38110923767089844,0.8441821336746216
1772514785038080500,12.52608056640625,-0.4249114990234375,0.37354326248168945,0.896335244178772
1772514785048127000,12.536126953125,-0.42627525329589844,0.31108999252319336,0.930120050907135
1772514785058186000,12.54618603515625,-0.32329845428466797,0.27971410751342773,0.9412379264831543
1772514785068233700,12.556233642578125,-0.14460086822509766,0.21176409721374512,0.9231430888175964
1772514785078281700,12.56628173828125,0.005096435546875,0.07241630554199219,0.9186952710151672
1772514785088329500,12.57632958984375,-0.0023374557495117188,-0.03507876396179199,0.8563035726547241
1772514785098371600,12.58637158203125,-0.07573699951171875,-0.12029051780700684,0.7784683704376221
1772514785108418800,12.596418701171874,-0.15785980224609375,-0.21113991737365723,0.7030850648880005
1772514785118468900,12.60646875,-0.27762794494628906,-0.287778377532959,0.6496542096138
1772514785128516400,12.616516357421874,-0.2730569839477539,-0.3107411861419678,0.5751317739486694
1772514785138559200,12.626559326171876,-0.18713760375976562,-0.3621079921722412,0.5795356035232544
1772514785148606500,12.6366064453125,-0.17694473266601562,-0.4102044105529785,0.5958415269851685
