time,seconds_elapsed,z,y,x
1772470165025633300,0.15763330078125,-0.029414497315883636,-0.16310615837574005,0.2264084815979004
1772470165035641300,0.167641357421875,-0.02389034442603588,-0.22304876148700714,0.2698688507080078
1772470165045649400,0.1776494140625,-0.053935062140226364,-0.3185531497001648,0.31862252950668335
1772470165055657500,0.187657470703125,-0.07491888850927353,-0.41755613684654236,0.3307704031467438
1772470165065665500,0.19766552734375,-0.13470180332660675,-0.5509546995162964,0.24710611999034882
1772470165075673300,0.20767333984375,-0.18648558855056763,-0.4177575707435608,0.19331695139408112
1772470165085682400,0.217682373046875,-0.17090317606925964,-0.28667303919792175,0.2219264954328537
1772470165095690500,0.2276904296875,-0.23971639573574066,-0.2726757526397705,0.3141818940639496
1772470165105698300,0.2376982421875,-0.3632412552833557,-0.2952739894390106,0.41438040137290955
1772470165115706400,0.247706298828125,-0.5385769009590149,0.027719376608729362,0.44018250703811646
1772470165125714400,0.25771435546875,-0.45257169008255005,0.2574215531349182,0.3627593517303467
1772470165135723300,0.26772314453125,-0.3738880753517151,0.39360180497169495,0.14811910688877106
1772470165145731300,0.2777314453125,-0.4123915135860443,0.46558332443237305,-0.06957939267158508
1772470165155739600,0.28773974609375,-0.4391174912452698,0.5846335291862488,-0.2180056869983673
1772470165165747500,0.29774755859375,-0.40224602818489075,0.8358625769615173,-0.36033380031585693
1772470165175755500,0.307755615234375,-0.34625697135925293,1.1277798414230347,-0.479037344455719
1772470165185763300,0.317763427734375,-0.32458123564720154,1.330022931098938,-0.5528907775878906
1772470165195772400,0.3277724609375,-0.46611201763153076,1.1837682723999023,-0.7141150236129761
1772470165205780500,0.337780517578125,-0.7063597440719604,0.2682843804359436,-1.291621208190918
1772470165215788300,0.347788330078125,-0.5839076638221741,-0.22587653994560242,-1.9295949935913086
1772470165225796400,0.35779638671875,-0.1625412553548813,-0.6277299523353577,-2.2485485076904297
1772470165235804700,0.3678046875,0.1902204155921936,-1.2641065120697021,-2.2191646099090576
1772470165245813200,0.377813232421875,0.4002831280231476,-1.6029620170593262,-2.0770277976989746
1772470165255821600,0.387821533203125,0.41302379965782166,-1.5045535564422607,-1.7685636281967163
1772470165265829400,0.397829345703125,0.35207629203796387,-1.2867040634155273,-1.3772592544555664
1772470165275837400,0.40783740234375,0.2736029028892517,-0.736674964427948,-1.1045187711715698
1772470165285845500,0.417845458984375,0.20488403737545013,-0.48551011085510254,-0.9615939259529114
1772470165295854300,0.427854248046875,0.16999982297420502,-0.32692861557006836,-0.916871190071106
1772470165305862400,0.4378623046875,0.10595240443944931,-0.16863618791103363,-0.861199140548706
1772470165315870500,0.447870361328125,0.04031399264931679,0.099738210439682,-0.686946451663971
1772470165325878300,0.457878173828125,-0.02315419726073742,0.3083297610282898,-0.3901757597923279
1772470165335886600,0.467886474609375,0.0059472075663506985,0.499038964509964,0.031083375215530396
1772470165345894400,0.477894287109375,0.07431747764348984,0.8286342024803162,0.5506354570388794
1772470165355903500,0.487903564453125,-0.029820458963513374,1.2228349447250366,0.9632067084312439
1772470165365911600,0.49791162109375,-0.11839479207992554,1.3352717161178589,1.0965096950531006
1772470165375919400,0.50791943359375,-0.1695937216281891,1.0395910739898682,0.9306744337081909
1772470165385927400,0.517927490234375,-0.23454555869102478,0.5162594318389893,0.6696571707725525
1772470165395935500,0.527935546875,-0.2666580080986023,0.23588447272777557,0.43721655011177063
1772470165405944300,0.5379443359375,-0.25540587306022644,0.12921075522899628,0.2702459394931793
1772470165415952400,0.547952392578125,-0.21242879331111908,0.031542323529720306,0.18609197437763214
1772470165425960400,0.55796044921875,-0.12376337498426437,0.03987162560224533,0.2249235212802887
1772470165435968500,0.567968505859375,-0.012071135453879833,0.18288196623325348,0.38368144631385803
1772470165445976600,0.5779765625,0.07612556964159012,0.3775254786014557,0.5519269108772278
1772470165455985700,0.587985595703125,0.13716551661491394,0.5584477186203003,0.6864528059959412
1772470165465993500,0.597993408203125,0.15981996059417725,0.654411792755127,0.7305877804756165
1772470165476001500,0.60800146484375,0.15827417373657227,0.672645628452301,0.679039478302002
1772470165486009300,0.61800927734375,0.13165241479873657,0.6217355728149414,0.5930750370025635
1772470165496017400,0.628017333984375,0.09344407171010971,0.5250516533851624,0.5053992867469788
1772470165506025500,0.638025390625,0.054050054401159286,0.38866904377937317,0.4011075496673584
1772470165516034300,0.648034423828125,0.03863401710987091,0.2485531121492386,0.28651440143585205
1772470165526042400,0.65804248046875,0.043666329234838486,0.13424386084079742,0.17220540344715118
1772470165536050400,0.668050537109375,0.058990105986595154,0.0691668912768364,0.10234230756759644
1772470165546058500,0.67805859375,0.056104302406311035,0.05452084168791771,0.08799585700035095
1772470165556066600,0.688066650390625,0.047118935734033585,0.0981057658791542,0.11814848333597183
1772470165566075400,0.698075439453125,0.03788282722234726,0.16436894237995148,0.14930108189582825
1772470165576083500,0.70808349609375,0.02723575383424759,0.2217387557029724,0.17993894219398499
1772470165586091500,0.718091552734375,0.00771691370755434,0.27693596482276917,0.21878354251384735
1772470165596099300,0.728099365234375,-0.019333234056830406,0.32792115211486816,0.2619372308254242
1772470165606107400,0.738107421875,-0.06285753846168518,0.334053099155426,0.2665266692638397
1772470165616116500,0.748116455078125,-0.08392900228500366,0.3337077796459198,0.25397706031799316
1772470165626124300,0.758124267578125,-0.03728586435317993,0.15949229896068573,0.05705386772751808
1772470165636132400,0.76813232421875,0.04363352432847023,0.054020803421735764,-0.21814249455928802
1772470165646140400,0.778140380859375,0.045886557549238205,0.10750079900026321,-0.30184406042099
1772470165656148500,0.7881484375,0.023040615022182465,0.18816114962100983,-0.20054921507835388
1772470165666157600,0.798157470703125,-0.01779230311512947,0.28979161381721497,-0.02055974490940571
1772470165676165400,0.808165283203125,-0.08806532621383667,0.3804274797439575,0.1149400994181633
1772470165686173400,0.81817333984375,-0.136960968375206,0.3405229449272156,0.115111343562603
1772470165696181500,0.828181396484375,-0.11588723957538605,0.12984305620193481,0.005991995334625244
1772470165706189300,0.838189208984375,-0.09187644720077515,-0.10701023787260056,-0.18173182010650635
1772470165716198400,0.848198486328125,-0.06255946308374405,-0.31727737188339233,-0.3796723186969757
1772470165726206500,0.85820654296875,-0.01678798720240593,-0.4986918866634369,-0.5011212825775146
1772470165736214300,0.86821435546875,-0.0083052609115839,-0.6766930818557739,-0.5109017491340637
1772470165746222300,0.878222412109375,-0.0679243803024292,-0.7534499168395996,-0.40995705127716064
1772470165756230400,0.88823046875,-0.19011841714382172,-0.6585143804550171,-0.16935671865940094
1772470165766239500,0.898239501953125,-0.3673211634159088,-0.37533992528915405,0.18228812515735626
1772470165776247300,0.908247314453125,-0.5631212592124939,-0.12746667861938477,0.4998304545879364
1772470165786255400,0.91825537109375,-0.7211460471153259,-0.07420452684164047,0.6714911460876465
1772470165796263200,0.92826318359375,-0.8091895580291748,-0.197299987077713,0.7140132188796997
1772470165806271200,0.938271240234375,-0.7836578488349915,-0.43631309270858765,0.6963849663734436
1772470165816280300,0.9482802734375,-0.7369791865348816,-0.7274238467216492,0.5649751424789429
1772470165826288000,0.9582880859375,-0.8649978637695312,-0.7841377258300781,0.3077406883239746
1772470165836296200,0.968296142578125,-1.0621553659439087,-0.873913586139679,0.03522971644997597
1772470165846304500,0.978304443359375,-1.1686354875564575,-1.1900744438171387,-0.27351027727127075
1772470165856312300,0.988312255859375,-1.1911733150482178,-1.535994052886963,-0.5703155994415283
1772470165866321400,0.9983212890625,-1.3359177112579346,-2.2908103466033936,-0.47811830043792725
1772470165876329500,1.00832958984375,-1.3156464099884033,-3.1790971755981445,-0.4253006875514984
1772470165886337300,1.018337158203125,-1.0233948230743408,-3.7121312618255615,-0.388801246881485
1772470165896345300,1.028345458984375,-0.5387366414070129,-3.478139638900757,-0.32048144936561584
1772470165906353200,1.038353271484375,-0.0039515504613518715,-3.226423501968384,-0.21327322721481323
1772470165916362200,1.0483623046875,0.4281946122646332,-2.7277252674102783,-0.13944101333618164
1772470165926370300,1.058370361328125,0.6924883127212524,-1.9468390941619873,-0.26893162727355957
1772470165936378400,1.06837841796875,0.8916573524475098,-1.6435800790786743,-0.353422611951828
1772470165946386400,1.078386474609375,0.9854802489280701,-1.4386305809020996,-0.57364821434021
1772470165956394200,1.088394287109375,1.0467647314071655,-1.3319653272628784,-0.8920301198959351
1772470165966402300,1.09840234375,1.1283434629440308,-1.1515125036239624,-1.2445145845413208
1772470165976411400,1.108411376953125,1.2010291814804077,-0.3906387984752655,-1.6702640056610107
1772470165986419200,1.118419189453125,1.1592085361480713,0.09083622694015503,-2.0210726261138916
1772470165996427300,1.12842724609375,0.9590824246406555,0.5395987033843994,-2.338345527648926
1772470166006435300,1.138435302734375,0.6669989228248596,1.0657533407211304,-2.598452091217041
1772470166016443100,1.148443115234375,0.4386807680130005,1.5508934259414673,-2.6377859115600586
1772470166026452200,1.1584521484375,0.3129348158836365,1.530278205871582,-2.4465200901031494
1772470166036460300,1.168460205078125,0.23249129951000214,1.20428466796875,-2.0387585163116455
1772470166046468400,1.17846826171875,0.20180504024028778,1.0352171659469604,-1.554956078529358
1772470166056476400,1.188476318359375,0.15356478095054626,0.9979715347290039,-1.150618553161621
1772470166066484200,1.198484130859375,0.18435437977313995,0.7257275581359863,-0.8028376698493958
1772470166076493300,1.208493408203125,0.2169305831193924,0.2122529000043869,-0.47249501943588257
1772470166086501400,1.21850146484375,0.13606104254722595,-0.21626701951026917,-0.23576824367046356
1772470166096509200,1.22850927734375,-0.08557019382715225,-0.3371370732784271,-0.23002837598323822
1772470166106517200,1.238517333984375,-0.27096107602119446,-0.12925204634666443,-0.4399922490119934
1772470166116525300,1.248525390625,-0.3013688325881958,0.077919140458107,-0.5837908983230591
1772470166126534100,1.2585341796875,-0.24165621399879456,0.28363263607025146,-0.7281129360198975
1772470166136542200,1.268542236328125,-0.20594926178455353,0.5878868699073792,-0.8716162443161011
1772470166146550500,1.278550537109375,-0.2342005968093872,0.8662207722663879,-0.8413203954696655
1772470166156558300,1.288558349609375,-0.26854613423347473,0.907753586769104,-0.694089412689209
1772470166166566400,1.29856640625,-0.3508319556713104,0.9330485463142395,-0.46049371361732483
1772470166176575500,1.308575439453125,-0.48892104625701904,1.0493966341018677,-0.17845147848129272
1772470166186583300,1.318583251953125,-0.6749604344367981,1.124461054801941,0.10566678643226624
1772470166196591400,1.32859130859375,-0.8560013175010681,1.1677112579345703,0.36320438981056213
1772470166206599200,1.33859912109375,-0.9645965099334717,1.1879163980484009,0.5578585863113403
1772470166216607200,1.348607177734375,-0.9853140115737915,1.121225357055664,0.6730945706367493
1772470166226616300,1.3586162109375,-0.983938992023468,0.935856282711029,0.7154590487480164
1772470166236624100,1.3686240234375,-1.0142686367034912,0.7617762088775635,0.7312977910041809
1772470166246632400,1.378632568359375,-1.0492652654647827,0.6278812885284424,0.6178293228149414
1772470166256640300,1.38864013671875,-1.0638881921768188,0.5540333390235901,0.3669646382331848
1772470166266648300,1.3986484375,-1.0022038221359253,0.7021455764770508,0.05666961520910263
1772470166276657400,1.408657470703125,-0.8782389163970947,1.004075288772583,-0.31083181500434875
1772470166286665200,1.418665283203125,-0.6667059063911438,1.2571929693222046,-0.6437961459159851
1772470166296673300,1.42867333984375,-0.43323439359664917,1.1815420389175415,-0.856755793094635
1772470166306681300,1.438681396484375,-0.25874966382980347,0.7829383015632629,-0.9458422660827637
1772470166316690200,1.448690185546875,-0.15573091804981232,0.17596076428890228,-0.9798831343650818
1772470166326698200,1.4586982421875,-0.09406916797161102,-0.40577641129493713,-1.0209808349609375
1772470166336706300,1.468706298828125,-0.06718148291110992,-0.8515958189964294,-1.1132621765136719
1772470166346714400,1.47871435546875,0.028909893706440926,-1.1752917766571045,-1.3062001466751099
1772470166356722400,1.488722412109375,0.17034009099006653,-1.483263373374939,-1.6280094385147095
1772470166366731500,1.4987314453125,0.3767926096916199,-1.8312815427780151,-2.024388551712036
1772470166376739300,1.5087392578125,0.6206908226013184,-2.262159824371338,-2.43707013130188
1772470166386747400,1.518747314453125,0.8789191842079163,-2.3961122035980225,-2.8636748790740967
1772470166396755200,1.528755126953125,0.9646927714347839,-3.044335126876831,-2.7998392581939697
1772470166406763300,1.53876318359375,0.8948835730552673,-3.7555503845214844,-2.332557439804077
1772470166416772400,1.5487724609375,0.9341560006141663,-3.9374492168426514,-1.652984380722046
1772470166426780200,1.5587802734375,1.0949517488479614,-3.7747652530670166,-1.0720813274383545
1772470166436788200,1.568788330078125,1.3692951202392578,-3.4555790424346924,-0.8635126352310181
1772470166446796500,1.578796630859375,1.717767357826233,-2.8807859420776367,-1.0138776302337646
1772470166456804400,1.588804443359375,2.030039072036743,-2.1258902549743652,-1.1943085193634033
1772470166466813400,1.5988134765625,2.275824785232544,-1.2099460363388062,-1.334871768951416
1772470166476821500,1.608821533203125,2.4278953075408936,-0.33259308338165283,-1.3716357946395874
1772470166486829300,1.618829345703125,2.477708339691162,0.47961193323135376,-1.3365859985351562
1772470166496837400,1.62883740234375,2.4326367378234863,0.9354133009910583,-1.2373838424682617
1772470166506845200,1.63884521484375,2.321866750717163,0.9163780808448792,-0.938193678855896
1772470166516854300,1.648854248046875,2.2762160301208496,0.5420591235160828,-0.3099268674850464
1772470166526862300,1.6588623046875,2.255619525909424,0.06479029357433319,0.5929747819900513
1772470166536870100,1.6688701171875,2.0466485023498535,0.08992559462785721,1.4914354085922241
1772470166546878500,1.67887841796875,1.79062020778656,0.7443047761917114,2.366892099380493
1772470166556886300,1.68888623046875,1.570629596710205,1.6196964979171753,3.1554040908813477
1772470166566895400,1.698895263671875,1.3068426847457886,2.1481516361236572,3.7593138217926025
1772470166576903400,1.7089033203125,1.0254251956939697,2.210367202758789,4.0357537269592285
1772470166586911200,1.7189111328125,0.7040631175041199,1.925916314125061,4.035538196563721
1772470166596919300,1.728919189453125,0.46450576186180115,1.6419886350631714,3.891955852508545
1772470166606927400,1.73892724609375,0.37815091013908386,1.397186040878296,3.8510937690734863
1772470166616936200,1.748936279296875,0.3131004869937897,1.145058035850525,3.9632866382598877
1772470166626944300,1.7589443359375,0.12695138156414032,1.120924711227417,4.119441032409668
1772470166636952300,1.768952392578125,0.011844037100672722,1.2814356088638306,4.143203258514404
1772470166646960400,1.77896044921875,-0.030919142067432404,1.3847720623016357,4.093259334564209
1772470166656969200,1.78896923828125,-0.022770961746573448,1.129056453704834,3.8964943885803223
1772470166666977300,1.798977294921875,0.04943079501390457,0.8374506831169128,3.570352554321289
1772470166676985300,1.8089853515625,0.1927310824394226,0.8987838625907898,3.1619462966918945
1772470166686993400,1.818993408203125,0.403743177652359,1.2609764337539673,2.750054121017456
1772470166697001200,1.829001220703125,0.6680511236190796,1.5754717588424683,2.3578381538391113
1772470166707010300,1.83901025390625,0.9059289693832397,1.6920151710510254,2.0411345958709717
1772470166717018400,1.849018310546875,1.0918068885803223,1.6416293382644653,1.8270546197891235
1772470166727026200,1.859026123046875,1.1557949781417847,1.3969945907592773,1.663480520248413
1772470166737034500,1.869034423828125,1.106864333152771,1.154863715171814,1.44594144821167
1772470166747042300,1.879042236328125,1.0185691118240356,0.9900569915771484,1.1789778470993042
1772470166757051400,1.889051513671875,0.9396181702613831,0.8616964817047119,0.9325284361839294
1772470166767059500,1.8990595703125,0.838231086730957,0.6869217157363892,0.697055459022522
1772470166777067500,1.909067626953125,0.6332584023475647,0.49323156476020813,0.3864564299583435
1772470166787075600,1.91907568359375,0.35134947299957275,0.46585240960121155,0.02586524188518524
1772470166797083400,1.92908349609375,0.10825594514608383,0.47594743967056274,-0.3511626124382019
1772470166807092500,1.939092529296875,-0.0769282877445221,0.45711809396743774,-0.6935724020004272
1772470166817100500,1.9491005859375,-0.23103532195091248,0.37523236870765686,-0.9477897882461548
1772470166827108400,1.9591083984375,-0.3897671699523926,0.1907634437084198,-1.1366199254989624
1772470166837116400,1.969116455078125,-0.5420697927474976,-0.08957862108945847,-1.3338629007339478
1772470166847125500,1.97912548828125,-0.6411479115486145,-0.34002816677093506,-1.5506937503814697
1772470166857133300,1.98913330078125,-0.6638639569282532,-0.4578355550765991,-1.8230239152908325
1772470166867141400,1.999141357421875,-0.6211321949958801,-0.3849392235279083,-2.1442630290985107
1772470166877149700,2.009149658203125,-0.5291963815689087,-0.2179165929555893,-2.440155029296875
1772470166887157500,2.019157470703125,-0.46097952127456665,-0.008632882498204708,-2.6773393154144287
1772470166897166600,2.02916650390625,-0.4348505437374115,0.1403241753578186,-2.8133492469787598
1772470166907174700,2.039174560546875,-0.40507933497428894,0.15587544441223145,-2.8516719341278076
1772470166917182500,2.049182373046875,-0.36491045355796814,-0.07580651342868805,-2.8236029148101807
1772470166927190500,2.0591904296875,-0.32083967328071594,-0.39681142568588257,-2.762995958328247
1772470166937198300,2.0691982421875,-0.22057276964187622,-0.49960899353027344,-2.73596453666687
1772470166947207400,2.07920751953125,-0.09986259788274765,-0.31153443455696106,-2.7749440670013428
1772470166957215500,2.089215576171875,-0.015720095485448837,-0.10491784662008286,-2.8763480186462402
1772470166967223300,2.099223388671875,-0.024852074682712555,-0.2911641597747803,-3.048231840133667
1772470166977231600,2.109231689453125,-0.1833893060684204,-0.9414268136024475,-3.242074489593506
1772470166987239700,2.11923974609375,-0.33543580770492554,-1.9250972270965576,-3.5035922527313232
1772470166997248500,2.12924853515625,-0.3737178146839142,-2.697272300720215,-3.959522247314453
1772470167007256600,2.139256591796875,-0.24091847240924835,-2.602205276489258,-4.422929763793945
1772470167017264400,2.149264404296875,-0.01060244720429182,-1.8841378688812256,-4.656792640686035
1772470167027272400,2.1592724609375,0.20113882422447205,-1.3761996030807495,-4.558640003204346
1772470167037281500,2.169281494140625,0.35587817430496216,-1.291277289390564,-4.062836647033691
1772470167047289300,2.179289306640625,0.41267725825309753,-1.4121729135513306,-3.6902778148651123
1772470167057297400,2.18929736328125,0.41901901364326477,-1.1033296585083008,-3.5265369415283203
1772470167067305500,2.199305419921875,0.5909388661384583,-0.3337690830230713,-3.1843862533569336
1772470167077313500,2.2093134765625,0.9365586638450623,0.379600465297699,-2.395839214324951
1772470167087322400,2.219322265625,1.2193769216537476,0.47175517678260803,-0.9875036478042603
1772470167097330700,2.22933056640625,1.284519910812378,-0.08898095786571503,0.8934604525566101
1772470167107338500,2.23933837890625,0.9690073132514954,-0.7290394902229309,2.6839759349823
1772470167117346600,2.2493466796875,0.3285996615886688,-1.1225506067276,3.9010567665100098
1772470167127354400,2.259354248046875,-0.30155855417251587,-1.237980842590332,4.440309524536133
1772470167137363500,2.269363525390625,-0.6273790597915649,-0.7838987708091736,4.411333084106445
1772470167147371500,2.27937158203125,-0.5848446488380432,0.057770371437072754,4.143416881561279
1772470167157379300,2.28937939453125,-0.44063565135002136,0.72126305103302,3.8497002124786377
1772470167167387400,2.299387451171875,-0.4166719913482666,0.9524893760681152,3.656327724456787
1772470167177396500,2.309396484375,-0.42862173914909363,0.9175664186477661,3.6561577320098877
1772470167187404300,2.319404296875,-0.4166409969329834,0.7663851380348206,3.777719736099243
1772470167197412600,2.32941259765625,-0.35138601064682007,0.40765655040740967,3.8653836250305176
1772470167207420700,2.339420654296875,-0.1799338459968567,0.07577847689390182,3.900632858276367
1772470167217428500,2.349428466796875,0.07973676919937134,-0.03365480154752731,3.947413682937622
1772470167227437600,2.3594375,0.31529363989830017,0.06022561714053154,3.920604944229126
1772470167237445600,2.369445556640625,0.5122684836387634,0.23338890075683594,3.827420234680176
1772470167247453400,2.379453369140625,0.6481722593307495,0.4101839065551758,3.729759693145752
1772470167257461500,2.38946142578125,0.6411837935447693,0.6573854684829712,3.684889078140259
1772470167267470600,2.399470703125,0.5051170587539673,0.8589454889297485,3.692364454269409
1772470167277478400,2.409478515625,0.3366156220436096,0.7035645246505737,3.7564339637756348
1772470167287486500,2.419486572265625,0.13317091763019562,0.2122698873281479,3.732227325439453
1772470167297494500,2.42949462890625,-0.08069980889558792,-0.1783437579870224,3.5099802017211914
1772470167307502600,2.439502685546875,-0.22756116092205048,-0.24039220809936523,3.1351802349090576
1772470167317511700,2.44951171875,-0.2547902464866638,-0.11830396950244904,2.6904783248901367
1772470167327519500,2.45951953125,-0.2206495851278305,0.01965709775686264,2.2524781227111816
1772470167337527600,2.469527587890625,-0.17915044724941254,0.03198886662721634,1.8416438102722168
1772470167347535400,2.479535400390625,-0.18993385136127472,-0.08582618087530136,1.3008556365966797
1772470167357544400,2.48954443359375,-0.24643361568450928,-0.060303326696157455,0.6606844663619995
1772470167367552500,2.499552490234375,-0.28123021125793457,0.17112910747528076,0.024777274578809738
1772470167377560300,2.509560302734375,-0.2979731857776642,0.37821435928344727,-0.6432623267173767
1772470167387568400,2.519568359375,-0.3236069083213806,0.4564417898654938,-1.256142497062683
1772470167397576400,2.529576416015625,-0.35947585105895996,0.49196627736091614,-1.7083649635314941
1772470167407585300,2.539585205078125,-0.42120736837387085,0.5230483412742615,-2.003218173980713
1772470167417593600,2.549593505859375,-0.47765618562698364,0.5177278518676758,-2.1754252910614014
1772470167427601700,2.5596015625,-0.5382124185562134,0.3998432755470276,-2.298510789871216
1772470167437609500,2.569609375,-0.6048346161842346,0.18393376469612122,-2.410220146179199
1772470167447618600,2.57961865234375,-0.6663315296173096,-0.03653469309210777,-2.5055880546569824
1772470167457626600,2.589626708984375,-0.6779341697692871,-0.09300427883863449,-2.6029648780822754
1772470167467634400,2.599634521484375,-0.5914170742034912,0.06522024422883987,-2.739858388900757
1772470167477642500,2.609642578125,-0.4019310176372528,0.2663988471031189,-2.9340240955352783
1772470167487650300,2.619650390625,-0.1569439023733139,0.45002487301826477,-3.158127784729004
1772470167497659400,2.629659423828125,0.10107455402612686,0.6059992909431458,-3.3496944904327393
1772470167507667500,2.63966748046875,0.31498393416404724,0.6655843257904053,-3.4401915073394775
1772470167517675500,2.649675537109375,0.4657692611217499,0.6224367618560791,-3.361740827560425
1772470167527683600,2.65968359375,0.5771620869636536,0.5022323131561279,-3.1766085624694824
1772470167537692700,2.669692626953125,0.6267899870872498,0.25289568305015564,-2.9535133838653564
1772470167547700500,2.679700439453125,0.5990243554115295,-0.1054595336318016,-2.7622950077056885
1772470167557708500,2.68970849609375,0.5237327218055725,-0.5000170469284058,-2.7953169345855713
1772470167567716600,2.699716552734375,0.49021604657173157,-0.775169312953949,-3.2898659706115723
1772470167577724400,2.709724365234375,0.5554301738739014,-0.6511309742927551,-4.233701229095459
1772470167587733500,2.7197333984375,0.6916263699531555,0.06844956427812576,-5.232107162475586
1772470167597741300,2.7297412109375,0.8380730152130127,0.931805431842804,-5.792491912841797
1772470167607749400,2.739749267578125,0.952970564365387,1.2411878108978271,-5.728193759918213
1772470167617757400,2.74975732421875,1.064967155456543,0.9529233574867249,-5.249605178833008
1772470167627766300,2.759766357421875,1.207666039466858,0.6318681240081787,-4.470109939575195
1772470167637774600,2.769774658203125,1.403607726097107,0.33601728081703186,-3.318676471710205
1772470167647782700,2.77978271484375,1.3605921268463135,-0.10111397504806519,-1.8733470439910889
1772470167657790500,2.78979052734375,0.9326965808868408,-0.724632978439331,-0.24287810921669006
1772470167667799600,2.799799560546875,0.5021329522132874,-1.123199224472046,1.2261614799499512
1772470167677807600,2.8098076171875,0.373885840177536,-0.9406862854957581,2.265202522277832
1772470167687815400,2.8198154296875,0.4364352524280548,-0.3569490909576416,2.761904716491699
1772470167697823500,2.829823486328125,0.6202864050865173,0.15972211956977844,2.9160525798797607
1772470167707831300,2.839831298828125,0.7222468852996826,0.5183753371238708,3.0195560455322266
1772470167717840400,2.84984033203125,0.5376619100570679,0.6315281987190247,3.238492250442505
1772470167727848400,2.859848388671875,0.1855378895998001,0.34308093786239624,3.6505398750305176
1772470167737856500,2.8698564453125,-0.20082145929336548,-0.07482898235321045,4.22934627532959
1772470167747864300,2.8798642578125,-0.5977792143821716,-0.369697630405426,4.745840549468994
1772470167757873400,2.889873291015625,-0.8744579553604126,-0.5527188181877136,5.145750045776367
1772470167767881500,2.899881591796875,-0.8886821866035461,-0.6077448129653931,5.478306770324707
1772470167777889300,2.90988916015625,-0.676793098449707,-0.5901343822479248,5.697410583496094
1772470167787897300,2.9198974609375,-0.3602447509765625,-0.6110907793045044,5.778704643249512
1772470167797906400,2.929906494140625,-0.05923657864332199,-0.6847953200340271,5.66019344329834
1772470167807914200,2.939914306640625,0.12374948710203171,-0.713279128074646,5.36190128326416
1772470167817922300,2.94992236328125,0.2202947437763214,-0.8054854869842529,4.97859525680542
1772470167827930000,2.95993017578125,0.3016306161880493,-0.8940390944480896,4.612471580505371
1772470167837938400,2.9699384765625,0.35052257776260376,-0.883545994758606,4.288500785827637
1772470167847947300,2.979947265625,0.3284202218055725,-0.8655073642730713,3.918349266052246
1772470167857955300,2.989955322265625,0.21529030799865723,-0.8315057158470154,3.3691182136535645
1772470167867963400,2.99996337890625,0.05388357862830162,-0.6504427194595337,2.6254775524139404
1772470167877971500,3.009971435546875,-0.059215378016233444,-0.3433729112148285,1.7259331941604614
1772470167887980300,3.019980224609375,-0.13290317356586456,-0.07745442539453506,0.8393282890319824
1772470167897988400,3.02998828125,-0.14173492789268494,0.1795753687620163,0.05372142419219017
1772470167907996400,3.039996337890625,-0.1300678849220276,0.3572838604450226,-0.6018378138542175
1772470167918004200,3.050004150390625,-0.14152704179286957,0.4260315001010895,-1.1157901287078857
1772470167928013300,3.060013427734375,-0.15573528409004211,0.46060916781425476,-1.5224801301956177
1772470167938021400,3.070021484375,-0.19382725656032562,0.46315544843673706,-1.8501698970794678
1772470167948029200,3.080029296875,-0.2476755678653717,0.41662150621414185,-2.1609888076782227
1772470167958037500,3.09003759765625,-0.36738404631614685,0.29915815591812134,-2.5015923976898193
1772470167968045300,3.10004541015625,-0.5133427977561951,0.12724871933460236,-2.8367269039154053
1772470167978054400,3.110054443359375,-0.6302289962768555,-0.07063127309083939,-3.1227564811706543
1772470167988062500,3.1200625,-0.6937925219535828,-0.21804043650627136,-3.317800283432007
1772470167998070300,3.1300703125,-0.7005001306533813,-0.2586960196495056,-3.4201254844665527
1772470168008078300,3.140078369140625,-0.6630041599273682,-0.2448132187128067,-3.424180507659912
1772470168018087400,3.15008740234375,-0.5868970155715942,-0.26231110095977783,-3.335452079772949
1772470168028095200,3.16009521484375,-0.43263471126556396,-0.2103341817855835,-3.21142578125
1772470168038103300,3.170103271484375,-0.20393921434879303,-0.07190163433551788,-3.1510164737701416
1772470168048111000,3.180111083984375,0.020416922867298126,0.09122870117425919,-3.285611629486084
1772470168058120200,3.1901201171875,0.2425714135169983,0.22450463473796844,-3.5669686794281006
1772470168068128300,3.200128173828125,0.44178757071495056,0.32997164130210876,-3.8239803314208984
1772470168078136300,3.21013623046875,0.6127140522003174,0.43888694047927856,-3.8924076557159424
1772470168088144400,3.220144287109375,0.730484664440155,0.48578813672065735,-3.7317051887512207
1772470168098153500,3.230153564453125,0.6959112286567688,0.40210551023483276,-3.5556721687316895
1772470168108161300,3.240161376953125,0.5081613063812256,0.0807754173874855,-3.6745500564575195
1772470168118169300,3.25016943359375,0.19040100276470184,-0.26473772525787354,-4.131078243255615
1772470168128177400,3.260177490234375,-0.1682673990726471,-0.33622467517852783,-4.620956897735596
1772470168138186200,3.270186279296875,-0.3492456078529358,-0.20098407566547394,-4.7079901695251465
1772470168148194300,3.2801943359375,-0.44318249821662903,-0.13813720643520355,-4.33643102645874
1772470168158202400,3.290202392578125,-0.4545024335384369,-0.10556193441152573,-3.7524609565734863
1772470168168210200,3.300210205078125,-0.3446667492389679,-0.12932078540325165,-3.293515682220459
1772470168178218200,3.31021826171875,-0.0023283115588128567,0.10668934136629105,-2.7490885257720947
1772470168188227300,3.320227294921875,0.4509323835372925,0.48677435517311096,-2.018878936767578
1772470168198235400,3.3302353515625,0.7405940890312195,0.5059199929237366,-1.2524962425231934
1772470168208243500,3.340243408203125,0.7337473630905151,0.2114657461643219,-0.5254977345466614
1772470168218251300,3.350251220703125,0.4841965436935425,-0.2271398901939392,0.18970660865306854
1772470168228260400,3.36026025390625,0.16619299352169037,-0.6460269093513489,0.9658066034317017
1772470168238268400,3.370268310546875,-0.07888028770685196,-0.8553870916366577,1.748921275138855
1772470168248276200,3.380276123046875,-0.2088731825351715,-0.821824312210083,2.3932228088378906
1772470168258284300,3.3902841796875,-0.19565755128860474,-0.5042030215263367,2.88000226020813
1772470168268293400,3.40029345703125,-0.10090866684913635,-0.044409312307834625,3.2340760231018066
1772470168278301200,3.41030126953125,-0.08327343314886093,0.2857988178730011,3.5303890705108643
1772470168288309200,3.420309326171875,-0.17261022329330444,0.4116007089614868,3.8306050300598145
1772470168298317300,3.4303173828125,-0.29191386699676514,0.3293197453022003,4.22600793838501
1772470168308326100,3.440326171875,-0.3783097565174103,0.14895474910736084,4.788134574890137
1772470168318334500,3.45033447265625,-0.38276442885398865,-0.07467401027679443,5.477935791015625
1772470168328342300,3.46034228515625,-0.31107985973358154,-0.2678575813770294,6.152331352233887
1772470168338350300,3.470350341796875,-0.12511688470840454,-0.4261939823627472,6.696140289306641
1772470168348359400,3.480359375,0.05979304388165474,-0.5148537755012512,6.970468997955322
1772470168358367200,3.4903671875,0.1533277928829193,-0.6138538718223572,6.921513557434082
1772470168368375300,3.500375244140625,0.19273485243320465,-0.6770791411399841,6.602005481719971
1772470168378383400,3.51038330078125,0.2448529154062271,-0.6240749359130859,6.170138835906982
1772470168388392200,3.52039208984375,0.30943748354911804,-0.5535174012184143,5.732965469360352
1772470168398400300,3.530400146484375,0.3699238896369934,-0.5971580743789673,5.250805854797363
1772470168408408300,3.540408203125,0.40503421425819397,-0.6586869359016418,4.68283224105835
1772470168418416400,3.55041650390625,0.4012647867202759,-0.6376021504402161,4.033944606781006
1772470168428425200,3.56042529296875,0.3662857413291931,-0.6052252650260925,3.336146354675293
1772470168438433500,3.57043359375,0.330977201461792,-0.6279698610305786,2.590392827987671
1772470168448441300,3.58044140625,0.2951422333717346,-0.46222490072250366,1.7045843601226807
1772470168458449400,3.590449462890625,0.3325589895248413,-0.13283419609069824,0.6183925271034241
1772470168468457200,3.600457275390625,0.30408498644828796,0.10281534492969513,-0.5142021775245667
1772470168478466300,3.61046630859375,0.19079186022281647,0.16863985359668732,-1.4651105403900146
1772470168488474400,3.620474365234375,0.07741735875606537,0.1693197637796402,-2.1367721557617188
1772470168498482200,3.630482177734375,-0.0509910024702549,0.17048268020153046,-2.6028079986572266
1772470168508490200,3.640490234375,-0.20598430931568146,0.2165774703025818,-2.9970338344573975
1772470168518499300,3.650499267578125,-0.35852500796318054,0.2538771629333496,-3.384397506713867
1772470168528507100,3.660507080078125,-0.48705875873565674,0.2463686466217041,-3.649853229522705
1772470168538515500,3.670515380859375,-0.5303726196289062,0.20286425948143005,-3.749619722366333
1772470168548523500,3.6805234375,-0.4975859224796295,0.17119422554969788,-3.7350516319274902
1772470168558532400,3.690532470703125,-0.4345259666442871,0.1764126569032669,-3.675151824951172
1772470168568540400,3.70054052734375,-0.3800579309463501,0.1572088748216629,-3.6165659427642822
1772470168578548500,3.710548583984375,-0.379583477973938,0.07973133772611618,-3.496978282928467
1772470168588556300,3.720556396484375,-0.45703351497650146,0.039737846702337265,-3.354152202606201
1772470168598565400,3.7305654296875,-0.5372441411018372,0.03318335860967636,-3.1745803356170654
1772470168608573200,3.7405732421875,-0.5747331976890564,-0.013710647821426392,-2.972292423248291
1772470168618581200,3.750581298828125,-0.5793399214744568,-0.10074020177125931,-2.7795262336730957
1772470168628589300,3.76058935546875,-0.6076775193214417,-0.11939430981874466,-2.684147596359253
1772470168638598100,3.77059814453125,-0.6705422401428223,-0.0625218078494072,-2.824547529220581
1772470168648606200,3.780606201171875,-0.7888385653495789,0.07116781175136566,-3.2901151180267334
1772470168658614300,3.7906142578125,-0.9794203639030457,0.16144944727420807,-4.0371832847595215
1772470168668622300,3.800622314453125,-1.1171151399612427,0.22263716161251068,-4.830684185028076
1772470168678631400,3.81063134765625,-1.0978509187698364,0.38327962160110474,-5.425364971160889
1772470168688639500,3.820639404296875,-0.964940071105957,0.5744122862815857,-5.849122524261475
1772470168698647300,3.830647216796875,-0.7533062100410461,0.7274634838104248,-6.296928882598877
1772470168708655400,3.8406552734375,-0.4025524854660034,1.0714569091796875,-6.7298736572265625
1772470168718664400,3.85066455078125,0.17720730602741241,1.6130781173706055,-6.973052024841309
1772470168728672300,3.86067236328125,0.88837069272995,2.1144890785217285,-6.851226806640625
1772470168738680000,3.87068017578125,1.4534587860107422,1.9501789808273315,-6.1166791915893555
1772470168748688100,3.880688232421875,1.4641915559768677,0.9856685400009155,-4.715712547302246
1772470168758697000,3.890697021484375,0.9567573070526123,-0.332316517829895,-2.8893980979919434
1772470168768705000,3.900705078125,0.26185736060142517,-1.2780267000198364,-1.1607574224472046
1772470168778713000,3.910713134765625,-0.1556597501039505,-1.549210548400879,0.1939479559659958
1772470168788721200,3.92072119140625,-0.04880520701408386,-1.2045072317123413,1.2323650121688843
1772470168798730200,3.930730224609375,0.4011182487010956,-0.4397105872631073,2.088423252105713
1772470168808738000,3.940738037109375,0.7998472452163696,0.3605456054210663,2.8709638118743896
1772470168818746000,3.95074609375,0.8348226547241211,0.9072411060333252,3.670175313949585
1772470168828754200,3.960754150390625,0.5319152474403381,1.146161675453186,4.431334972381592
1772470168838763000,3.970762939453125,0.09189464896917343,0.8694206476211548,5.164642810821533
1772470168848771000,3.98077099609375,-0.35878410935401917,0.13110661506652832,5.905723571777344
1772470168858779100,3.990779052734375,-0.7601955533027649,-0.6759561896324158,6.5326948165893555
1772470168868787000,4.000786865234375,-0.8049302697181702,-1.0404391288757324,7.070866107940674
1772470168878796000,4.010796142578125,-0.49552494287490845,-0.9258344769477844,7.479854583740234
1772470168888804000,4.02080419921875,-0.04746565967798233,-0.6953386664390564,7.774657249450684
1772470168898812200,4.030812255859375,0.33193662762641907,-0.46258893609046936,7.996318817138672
1772470168908820200,4.0408203125,0.5428968667984009,-0.3592628240585327,8.123055458068848
1772470168918829300,4.050829345703125,0.5477434396743774,-0.5260137319564819,8.128405570983887
1772470168928837000,4.060837158203125,0.33454063534736633,-0.8840935826301575,7.983823299407959
1772470168938845200,4.07084521484375,0.11044075340032578,-1.2066034078598022,7.53818416595459
1772470168948853000,4.08085302734375,-0.0842570886015892,-1.3967869281768799,6.643469333648682
1772470168958862000,4.090862060546875,-0.23007605969905853,-1.3648061752319336,5.481056213378906
1772470168968870100,4.1008701171875,-0.16692425310611725,-0.9997758269309998,4.276810646057129
1772470168978878000,4.1108779296875,0.07787308841943741,-0.44085821509361267,3.119370698928833
1772470168988886000,4.120885986328125,0.28543585538864136,0.1483326256275177,2.0772359371185303
1772470168998895000,4.13089501953125,0.3034246563911438,0.4605576694011688,1.168287992477417
1772470169008903000,4.14090283203125,0.15658752620220184,0.49265435338020325,0.3688424229621887
1772470169018911200,4.1509111328125,-0.09700172394514084,0.2604111433029175,-0.34777021408081055
1772470169028919300,4.160919189453125,-0.36354339122772217,-0.09690489619970322,-0.9791567325592041
1772470169038928100,4.17092822265625,-0.5629889965057373,-0.405604749917984,-1.5650184154510498
1772470169048936200,4.180936279296875,-0.639370858669281,-0.5326843857765198,-2.115962266921997
1772470169058944000,4.190944091796875,-0.5707111358642578,-0.4695942997932434,-2.620493173599243
1772470169068952000,4.2009521484375,-0.41410502791404724,-0.2959758937358856,-3.0842676162719727
1772470169078961200,4.210961181640625,-0.26339343190193176,-0.13496516644954681,-3.4563522338867188
1772470169088969000,4.220968994140625,-0.1955869495868683,-0.03998832404613495,-3.7295801639556885
1772470169098977000,4.23097705078125,-0.219572052359581,-0.016817014664411545,-3.9308454990386963
1772470169108985000,4.240985107421875,-0.29512137174606323,-0.0754595547914505,-4.016402244567871
1772470169118994000,4.250993896484375,-0.33382564783096313,-0.12365841120481491,-4.0056962966918945
1772470169129002000,4.261001953125,-0.29315197467803955,-0.09457722306251526,-3.9736506938934326
1772470169139010300,4.27101025390625,-0.1734829694032669,0.02867930755019188,-3.9251487255096436
1772470169149018000,4.28101806640625,-0.02450893074274063,0.18776163458824158,-3.827479124069214
1772470169159027200,4.291027099609375,0.12013716995716095,0.2948782444000244,-3.6747403144836426
1772470169169035300,4.30103515625,0.2476876676082611,0.32754775881767273,-3.539789915084839
1772470169179043000,4.31104296875,0.336495578289032,0.28527504205703735,-3.5584635734558105
1772470169189051100,4.321051025390625,0.3335847556591034,0.16080687940120697,-3.8470730781555176
1772470169199060200,4.331060302734375,0.1570427417755127,-0.026176903396844864,-4.380774021148682
1772470169209068000,4.341068115234375,-0.20561134815216064,-0.35486239194869995,-5.070623874664307
1772470169219076000,4.351076171875,-0.7224961519241333,-0.728827178478241,-5.715062618255615
1772470169229084000,4.361083984375,-1.0931918621063232,-1.0103543996810913,-5.978622913360596
1772470169239093000,4.371093017578125,-1.088675618171692,-1.0067962408065796,-5.565184593200684
1772470169249101000,4.38110107421875,-0.7321151494979858,-0.7604280710220337,-4.6387410163879395
1772470169259109000,4.391109130859375,-0.2145792692899704,-0.6237986087799072,-3.74975323677063
1772470169269118000,4.401117919921875,0.5044284462928772,-0.24321424961090088,-2.7703709602355957
1772470169279126300,4.411126220703125,0.9330882430076599,0.21990977227687836,-1.8144488334655762
1772470169289134000,4.421134033203125,0.933902382850647,0.44943004846572876,-0.7104514241218567
1772470169299142100,4.43114208984375,0.540958046913147,0.22536291182041168,0.5064799189567566
1772470169309151200,4.441151123046875,0.035042956471443176,-0.17529849708080292,1.7651517391204834
1772470169319159000,4.451158935546875,-0.3274412751197815,-0.3743739128112793,2.9317047595977783
1772470169329167000,4.4611669921875,-0.48328226804733276,-0.2569010853767395,3.8039352893829346
1772470169339175200,4.471175048828125,-0.5097340941429138,0.05920843780040741,4.2596635818481445
1772470169349184000,4.48118408203125,-0.5076054334640503,0.4754940867424011,4.310269355773926
1772470169359192000,4.491192138671875,-0.5101472735404968,0.8751599788665771,4.202722549438477
1772470169369199900,4.501199951171875,-0.6156137585639954,1.185333251953125,4.1488542556762695
1772470169379208200,4.511208251953125,-0.7662076354026794,1.3078482151031494,4.260499000549316
1772470169389217000,4.521217041015625,-0.850593090057373,1.2490423917770386,4.587531089782715
1772470169399225000,4.53122509765625,-0.9134417772293091,1.1636723279953003,4.9736199378967285
1772470169409233200,4.541233154296875,-0.9725818037986755,1.1643370389938354,5.246889114379883
1772470169419241200,4.5512412109375,-0.9232726097106934,1.1876462697982788,5.3753204345703125
1772470169429250000,4.56125,-0.8407287001609802,1.1370134353637695,5.353177547454834
1772470169439258000,4.571258056640625,-0.7303131818771362,1.0245977640151978,5.28640604019165
1772470169449266200,4.58126611328125,-0.5881592631340027,0.9486926198005676,5.171935558319092
1772470169459274000,4.59127392578125,-0.45736750960350037,0.9466329216957092,5.01868200302124
1772470169469283000,4.601282958984375,-0.36014190316200256,0.8898060917854309,4.921250820159912
1772470169479291100,4.611291015625,-0.2912065088748932,0.5728835463523865,4.968915939331055
1772470169489299000,4.621298828125,-0.22408153116703033,-0.07463079690933228,5.068745136260986
1772470169499308000,4.63130810546875,-0.11005689948797226,-0.6688532829284668,4.973779678344727
1772470169509316000,4.641316162109375,0.2064446061849594,-0.6044775247573853,4.450051307678223
1772470169519324200,4.65132421875,0.6212064027786255,0.20913244783878326,3.4933838844299316
1772470169529332200,4.661332275390625,0.6933450698852539,1.0910241603851318,2.35180401802063
1772470169539341300,4.67134130859375,0.7279174327850342,1.4757312536239624,1.193476915359497
1772470169549349000,4.68134912109375,0.6573218703269958,1.5819634199142456,0.008000815287232399
1772470169559357200,4.691357177734375,0.4248617887496948,1.4646859169006348,-0.8306346535682678
1772470169569365000,4.701364990234375,0.18072982132434845,1.2304127216339111,-1.4239989519119263
1772470169579374000,4.7113740234375,-0.06956905126571655,0.9677921533584595,-1.9065165519714355
1772470169589382100,4.721382080078125,-0.28662413358688354,0.6844446063041687,-2.1927359104156494
1772470169599390000,4.731389892578125,-0.4760039150714874,0.4666816294193268,-2.4267969131469727
1772470169609398000,4.74139794921875,-0.685429573059082,0.2191101610660553,-2.7109460830688477
1772470169619407000,4.751406982421875,-0.8477782011032104,0.03847596421837807,-2.994969606399536
1772470169629415000,4.761414794921875,-0.9975197315216064,-0.20101599395275116,-3.2866978645324707
1772470169639423200,4.77142333984375,-1.122641682624817,-0.5385622978210449,-3.5566608905792236
1772470169649431000,4.78143115234375,-1.2217397689819336,-0.8628538250923157,-3.80061936378479
1772470169659440000,4.791440185546875,-1.2593967914581299,-1.143134593963623,-4.001185417175293
1772470169669448200,4.8014482421875,-1.2062584161758423,-1.4513577222824097,-4.111823558807373
1772470169679456000,4.8114560546875,-1.0422486066818237,-1.6979411840438843,-4.13863468170166
1772470169689464000,4.821464111328125,-0.8574619889259338,-2.104978084564209,-3.994877576828003
1772470169699473200,4.83147314453125,-0.7051507830619812,-2.5422403812408447,-3.7563371658325195
1772470169709481000,4.84148095703125,-0.5401397347450256,-2.8874564170837402,-3.5060324668884277
1772470169719489000,4.851489013671875,-0.3777531683444977,-3.101454734802246,-3.452683687210083
1772470169729497000,4.8614970703125,-0.23796038329601288,-3.4687626361846924,-3.528548240661621
1772470169739506000,4.871505859375,-0.15425431728363037,-3.953951597213745,-3.6038613319396973
1772470169749514000,4.881513916015625,-0.07506602257490158,-4.364231109619141,-3.7392849922180176
1772470169759522000,4.89152197265625,0.047573480755090714,-4.558614730834961,-4.057252407073975
1772470169769531100,4.90153125,0.24225029349327087,-4.351169586181641,-4.465832233428955
1772470169779539000,4.9115390625,0.5070602893829346,-3.6424553394317627,-4.701828956604004
1772470169789547000,4.921547119140625,0.7626031041145325,-2.5935163497924805,-4.628997802734375
1772470169799554800,4.931554931640625,1.03401780128479,-1.6845359802246094,-4.253323078155518
1772470169809564000,4.94156396484375,1.3696842193603516,-0.9069311022758484,-3.7977652549743652
1772470169819572000,4.951572021484375,1.5681867599487305,0.13124793767929077,-3.3669443130493164
1772470169829579800,4.961579833984375,1.4304100275039673,0.9330111742019653,-2.93121075630188
1772470169839587800,4.971587890625,1.139784574508667,1.3530571460723877,-1.9123656749725342
1772470169849597000,4.981596923828125,0.7663877606391907,1.2700989246368408,-0.3598631024360657
1772470169859604700,4.991604736328125,0.45564380288124084,1.2431920766830444,1.255698561668396
1772470169869613000,5.001613037109375,-0.16972768306732178,0.9128602147102356,2.9729576110839844
1772470169879621000,5.01162109375,-0.44677454233169556,0.3525829315185547,4.373812198638916
1772470169889630000,5.0216298828125,-0.8201449513435364,-0.02209535241127014,5.253303527832031
1772470169899638000,5.031637939453125,-1.107666254043579,-0.06546160578727722,5.570577144622803
1772470169909646000,5.04164599609375,-1.2688069343566895,0.054372917860746384,5.611783027648926
1772470169919655000,5.051655029296875,-1.2999138832092285,0.2672243118286133,5.7887983322143555
1772470169929663000,5.0616630859375,-1.3086349964141846,0.4491179287433624,6.084842205047607
1772470169939671000,5.071671142578125,-1.4340252876281738,0.5740498304367065,6.295119762420654
1772470169949678800,5.081678955078125,-1.5589104890823364,0.5949287414550781,6.424468994140625
1772470169959688000,5.09168798828125,-1.6402853727340698,0.4712631404399872,6.465078353881836
1772470169969696000,5.101696044921875,-1.5534753799438477,0.4349842369556427,6.334471225738525
1772470169979703800,5.111703857421875,-1.2203636169433594,0.6369283199310303,5.997178554534912
1772470169989712000,5.1217119140625,-0.7250121831893921,0.9894051551818848,5.4716291427612305
1772470169999721000,5.131720947265625,-0.24407868087291718,1.2489902973175049,4.897344589233398
1772470170009729000,5.14172900390625,0.10921332985162735,1.3881803750991821,4.352054119110107
1772470170019737000,5.151737060546875,0.3631085455417633,1.4715313911437988,3.8212523460388184
1772470170029745000,5.161744873046875,0.4732193350791931,1.3564530611038208,3.3748457431793213
1772470170039754000,5.17175390625,0.5086610913276672,1.1442897319793701,3.0073933601379395
1772470170049762000,5.181761962890625,0.5462827682495117,0.9705525636672974,2.6319541931152344
1772470170059769900,5.191769775390625,0.5378139019012451,0.7576940655708313,2.156792163848877
1772470170069779000,5.201779052734375,0.5150625109672546,0.6171928644180298,1.587269902229309
1772470170079787000,5.211787109375,0.48682957887649536,0.4337143003940582,0.9900382161140442
1772470170089794800,5.221794921875,0.48117703199386597,0.17798931896686554,0.4008164703845978
1772470170099803000,5.231802978515625,0.5021421909332275,0.0675320029258728,-0.22028179466724396
1772470170109812000,5.24181201171875,0.555371880531311,0.2229471504688263,-0.9522537589073181
1772470170119819800,5.25181982421875,0.8086001873016357,0.9210288524627686,-1.898763656616211
1772470170129828000,5.261828125,0.6628069877624512,1.5421298742294312,-2.7493937015533447
1772470170139836000,5.2718359375,0.30056703090667725,1.3385931253433228,-3.1334335803985596
1772470170149845000,5.281844970703125,0.08365044742822647,0.9380277991294861,-3.222452402114868
1772470170159853000,5.29185302734375,0.2559530436992645,0.759334921836853,-3.4110021591186523
1772470170169860900,5.30186083984375,0.5650240778923035,0.6223589181900024,-3.6020302772521973
1772470170179869000,5.311868896484375,0.8582111597061157,0.41640594601631165,-3.5945844650268555
1772470170189878000,5.3218779296875,1.036632776260376,0.1464913785457611,-3.3626606464385986
1772470170199885800,5.3318857421875,1.0206109285354614,-0.15223614871501923,-3.08337664604187
1772470170209894000,5.341893798828125,0.8558160066604614,-0.6638688445091248,-2.8225090503692627
1772470170219903000,5.351903076171875,0.6482886075973511,-1.3913935422897339,-2.6483027935028076
1772470170229910800,5.361910888671875,0.4911266565322876,-2.0620312690734863,-2.6401894092559814
1772470170239918800,5.3719189453125,0.4929875433444977,-2.5465621948242188,-2.793637990951538
1772470170249927200,5.38192724609375,0.7755406498908997,-2.8317134380340576,-2.9798316955566406
1772470170259935700,5.391935791015625,1.2758777141571045,-2.82521915435791,-3.0865495204925537
1772470170269944000,5.401944091796875,1.7997771501541138,-2.5319485664367676,-3.0279488563537598
1772470170279952100,5.4119521484375,2.2804677486419678,-2.1283655166625977,-2.997481346130371
1772470170289960000,5.4219599609375,2.6440417766571045,-1.693654179573059,-3.2273287773132324
1772470170299969000,5.431968994140625,2.693372964859009,-1.260850191116333,-3.890042781829834
1772470170309977000,5.44197705078125,2.3376808166503906,-1.0165104866027832,-4.848461151123047
1772470170319985000,5.45198486328125,1.9637333154678345,-0.9859756231307983,-5.751298427581787
1772470170329994000,5.461993896484375,1.8964983224868774,-0.486401230096817,-6.336437702178955
1772470170340001800,5.472001708984375,1.9718292951583862,0.22169539332389832,-6.239757537841797
1772470170350009900,5.482009765625,1.971163272857666,0.594825267791748,-5.4380364418029785
1772470170360018000,5.492017822265625,1.8583182096481323,0.6696850061416626,-4.312708377838135
1772470170370026800,5.50202685546875,1.5487147569656372,0.7615742087364197,-3.3427422046661377
1772470170380034800,5.512034912109375,1.0064362287521362,0.847243070602417,-2.3292031288146973
1772470170390043100,5.522043212890625,0.4610738456249237,0.6897770166397095,-1.0709013938903809
1772470170400051000,5.532051025390625,-0.05168956518173218,0.3778657019138336,0.24602185189723969
1772470170410060000,5.54206005859375,-0.5630345940589905,0.2046651542186737,1.4095501899719238
1772470170420068000,5.552068115234375,-0.9696628451347351,0.23619747161865234,2.3775246143341064
1772470170430076000,5.562075927734375,-1.1803843975067139,0.4406009614467621,3.109940767288208
1772470170440085000,5.5720849609375,-1.2506437301635742,0.7749906778335571,3.5007970333099365
1772470170450093000,5.582093017578125,-1.2383174896240234,1.191943645477295,3.6776986122131348
1772470170460100900,5.592100830078125,-1.1957387924194336,1.5090631246566772,3.8871264457702637
1772470170470109000,5.60210888671875,-1.169266700744629,1.632652759552002,4.154199123382568
1772470170480118000,5.612117919921875,-1.1294516324996948,1.5865877866744995,4.493478775024414
1772470170490125800,5.622125732421875,-1.074527382850647,1.3984030485153198,4.825109481811523
1772470170500134000,5.6321337890625,-1.0492022037506104,1.2258877754211426,5.094527244567871
1772470170510142000,5.642141845703125,-1.0131702423095703,1.0302008390426636,5.363070964813232
1772470170520150800,5.65215087890625,-0.9767029881477356,0.7070397734642029,5.629883289337158
1772470170530159000,5.6621591796875,-0.9864727854728699,0.44852644205093384,5.747570037841797
1772470170540167000,5.6721669921875,-1.039141058921814,0.27192363142967224,5.584403038024902
1772470170550175000,5.682175048828125,-1.0699279308319092,0.21992355585098267,5.184216022491455
1772470170560184000,5.69218408203125,-1.0489192008972168,0.43042001128196716,4.773216247558594
1772470170570192000,5.70219189453125,-0.9396095275878906,0.7818808555603027,4.581222057342529
1772470170580200000,5.712199951171875,-0.7491165399551392,1.1578245162963867,4.652685165405273
1772470170590209000,5.722208984375,-0.5012487173080444,1.390549898147583,4.824247360229492
1772470170600216800,5.732216796875,-0.29790177941322327,1.4000154733657837,4.93851375579834
1772470170610225000,5.742224853515625,-0.1998918652534485,1.212600588798523,4.866267204284668
1772470170620232700,5.752232666015625,-0.15271013975143433,0.9915433526039124,4.564735412597656
1772470170630241800,5.76224169921875,-0.10250607877969742,0.7700144052505493,3.996291160583496
1772470170640249900,5.772249755859375,-0.12828688323497772,0.5288636088371277,3.1976966857910156
1772470170650258000,5.7822578125,-0.1918458789587021,0.2976333498954773,2.173213481903076
1772470170660266000,5.792265869140625,-0.25340190529823303,0.1147938072681427,1.057790994644165
1772470170670275000,5.802275146484375,-0.2866605222225189,0.09262378513813019,0.003086849581450224
1772470170680283000,5.812282958984375,-0.3237529695034027,0.022381287068128586,-0.9104169607162476
1772470170690291000,5.822291015625,-0.3678474724292755,-0.057173192501068115,-1.6757087707519531
1772470170700300000,5.832300048828125,-0.29146891832351685,-0.04929833486676216,-2.3618855476379395
1772470170710307800,5.842307861328125,-0.12223303318023682,0.04048481583595276,-2.995959520339966
1772470170720316000,5.85231591796875,0.028328241780400276,0.057321589440107346,-3.514958381652832
1772470170730324000,5.862323974609375,0.20311576128005981,0.026965811848640442,-3.8675360679626465
1772470170740332800,5.872332763671875,0.39229616522789,-0.04238944128155708,-4.0283379554748535
1772470170750340900,5.8823408203125,0.47446107864379883,-0.026158004999160767,-4.015760898590088
1772470170760349000,5.892348876953125,0.4154898226261139,0.023021452128887177,-3.938513994216919
1772470170770357000,5.90235693359375,0.3693492114543915,-0.054179057478904724,-3.82030987739563
1772470170780365800,5.91236572265625,0.4463169574737549,-0.4019867777824402,-3.790809154510498
1772470170790374100,5.9223740234375,0.578930139541626,-0.8615801930427551,-3.896287202835083
1772470170800382000,5.9323818359375,0.6718694567680359,-1.254259467124939,-3.9778690338134766
1772470170810391000,5.94239111328125,0.6970632076263428,-1.4500353336334229,-3.9265706539154053
1772470170820399000,5.952399169921875,0.681618332862854,-1.5309120416641235,-3.7850654125213623
1772470170830407000,5.962406982421875,0.6814055442810059,-1.539336919784546,-3.5874037742614746
1772470170840415000,5.9724150390625,0.6053227782249451,-1.656670331954956,-3.4463436603546143
1772470170850424000,5.982424072265625,0.4648977518081665,-1.9674553871154785,-3.5186681747436523
1772470170860432000,5.992431884765625,0.37503451108932495,-2.5198962688446045,-3.888967752456665
1772470170870440000,6.00243994140625,0.39597681164741516,-2.7892236709594727,-4.54102087020874
1772470170880449000,6.012448974609375,0.550463855266571,-2.088749647140503,-5.1926374435424805
1772470170890456800,6.022456787109375,0.7426514029502869,-0.6168343424797058,-5.421882629394531
1772470170900465000,6.03246484375,0.8994962573051453,0.6788883209228516,-5.088370323181152
1772470170910473000,6.042472900390625,0.9662238955497742,1.4461638927459717,-4.526517391204834
1772470170920482000,6.05248193359375,0.9001365303993225,1.9724838733673096,-3.722893238067627
1772470170930490000,6.062489990234375,0.6908568143844604,2.1896607875823975,-2.4197022914886475
1772470170940498000,6.072497802734375,0.3949223756790161,1.973435878753662,-0.7563760280609131
1772470170950506000,6.082506103515625,0.07319573312997818,1.499851107597351,1.0829191207885742
1772470170960515000,6.09251513671875,-0.20555515587329865,0.8176136612892151,2.855712652206421
1772470170970523000,6.10252294921875,-0.40175846219062805,0.209754079580307,4.302018642425537
1772470170980531000,6.112531005859375,-0.49836641550064087,-0.08890701085329056,5.09764289855957
1772470170990540000,6.1225400390625,-0.5376182198524475,-0.037560202181339264,5.185522079467773
1772470171000547800,6.1325478515625,-0.5023614168167114,0.34072309732437134,4.863835334777832
1772470171010556000,6.142555908203125,-0.42510122060775757,0.7387548685073853,4.4699578285217285
1772470171020564000,6.15256396484375,-0.3499489426612854,1.052376389503479,4.156626224517822
1772470171030572800,6.16257275390625,-0.26349928975105286,1.3388739824295044,4.0330586433410645
1772470171040580900,6.172580810546875,-0.16297253966331482,1.4236756563186646,4.1196675300598145
1772470171050589000,6.1825888671875,-0.06486514955759048,1.1537578105926514,4.349734783172607
1772470171060598000,6.192597900390625,-0.029466966167092323,0.6662673354148865,4.605936050415039
1772470171070606000,6.202606201171875,-0.04109805449843407,0.06941909343004227,4.820214748382568
1772470171080614000,6.21261376953125,-0.05444472283124924,-0.43192195892333984,4.933846950531006
1772470171090622000,6.2226220703125,-0.01201391126960516,-0.7814109921455383,4.916967868804932
1772470171100631000,6.232631103515625,0.04693082720041275,-0.873640239238739,4.73038387298584
1772470171110638800,6.242638916015625,0.08030156791210175,-0.5935377478599548,4.377105236053467
1772470171120647000,6.25264697265625,0.14971937239170074,-0.09186235815286636,3.915992498397827
1772470171130656000,6.262656005859375,0.22762030363082886,0.4021438956260681,3.4021193981170654
1772470171140663800,6.272663818359375,0.3101554811000824,0.7555404901504517,2.907357931137085
1772470171150672000,6.282671875,0.38523557782173157,0.9166731834411621,2.391801595687866
1772470171160680000,6.292679931640625,0.3820531666278839,0.8299263715744019,1.840727686882019
1772470171170688800,6.302688720703125,0.32333871722221375,0.7405350208282471,1.2440241575241089
1772470171180697000,6.312697021484375,0.24800395965576172,0.6989127993583679,0.617075502872467
1772470171190705000,6.322704833984375,0.15301859378814697,0.7372716069221497,0.04378613457083702
1772470171200713000,6.332712890625,0.0430721715092659,0.8296470046043396,-0.42409971356391907
1772470171210722000,6.34272216796875,-0.06731505692005157,1.0007740259170532,-0.85488361120224
1772470171220729900,6.352729736328125,-0.1479334682226181,1.165097951889038,-1.274489402770996
1772470171230738000,6.362738037109375,-0.19561123847961426,1.2515678405761719,-1.6870691776275635
1772470171240747000,6.3727470703125,-0.19587382674217224,1.214933156967163,-2.0778186321258545
1772470171250754800,6.3827548828125,-0.1604045182466507,1.0967342853546143,-2.423506736755371
1772470171260763000,6.392762939453125,-0.09179285168647766,0.8770085573196411,-2.738776683807373
1772470171270771000,6.40277099609375,0.024366773664951324,0.5949230790138245,-3.0373497009277344
1772470171280779800,6.41277978515625,0.1871771514415741,0.25601544976234436,-3.2298991680145264
1772470171290787800,6.422787841796875,0.3684537410736084,-0.08877123147249222,-3.340122938156128
1772470171300796000,6.4327958984375,0.5547308921813965,-0.44001248478889465,-3.3490235805511475
1772470171310804700,6.4428046875,0.7257572412490845,-0.706251323223114,-3.2998220920562744
1772470171320813000,6.45281298828125,0.8483615517616272,-0.8120768666267395,-3.2361481189727783
1772470171330821000,6.462821044921875,0.9350181818008423,-0.821386456489563,-3.1877105236053467
1772470171340829000,6.472828857421875,0.9890454411506653,-0.8299688696861267,-3.1488099098205566
1772470171350838000,6.482838134765625,0.9942924380302429,-1.0174442529678345,-3.2403903007507324
1772470171360846000,6.49284619140625,0.9902777075767517,-1.1577603816986084,-3.362898826599121
1772470171370854000,6.50285400390625,0.9338951110839844,-1.2211114168167114,-3.4175100326538086
1772470171380863000,6.512863037109375,0.8074671030044556,-1.3228135108947754,-3.340804100036621
1772470171390871000,6.52287109375,0.7022820711135864,-1.3026573657989502,-3.2992990016937256
1772470171400878800,6.53287890625,0.6741838455200195,-1.165424108505249,-3.5290608406066895
1772470171410887000,6.542886962890625,0.6958603858947754,-0.9399137496948242,-4.004735946655273
1772470171420896000,6.55289599609375,0.7108924984931946,-0.5292952060699463,-4.605823040008545
1772470171430903800,6.56290380859375,0.5409023761749268,-0.2263355553150177,-4.985032081604004
1772470171440912100,6.572912109375,0.28500545024871826,-0.2869844138622284,-5.0698957443237305
1772470171450920700,6.582920654296875,0.2109338939189911,-0.6686276197433472,-4.933086395263672
1772470171460929000,6.592928955078125,0.17559979856014252,-0.9440937042236328,-4.6057515144348145
1772470171470937000,6.60293701171875,0.14155474305152893,-1.0887800455093384,-3.795797824859619
1772470171480945000,6.61294482421875,0.13206328451633453,-1.224348545074463,-2.6186060905456543
1772470171490954000,6.6229541015625,0.18654677271842957,-1.2942131757736206,-1.4583163261413574
1772470171500962000,6.632962158203125,0.23768959939479828,-1.2778199911117554,-0.4245603084564209
1772470171510969900,6.642969970703125,0.2630559504032135,-1.008785605430603,0.424728125333786
1772470171520978000,6.65297802734375,0.2646353244781494,-0.5412315726280212,1.2878490686416626
1772470171530987000,6.662987060546875,0.2862873673439026,0.041779112070798874,2.205824851989746
1772470171540994800,6.672994873046875,0.34611624479293823,0.6953511238098145,3.024136781692505
1772470171551003000,6.6830029296875,0.4360099136829376,1.3477070331573486,3.608647346496582
1772470171561012000,6.693011962890625,0.51801997423172,1.771780014038086,3.9689085483551025
1772470171571019800,6.703019775390625,0.5114800333976746,1.8151003122329712,4.207953929901123
1772470171581028000,6.713028076171875,0.39970073103904724,1.582903265953064,4.422929286956787
1772470171591036000,6.723035888671875,0.23860611021518707,1.2322636842727661,4.67986536026001
1772470171601045000,6.733044921875,0.07524821907281876,0.760346531867981,5.036554336547852
1772470171611053000,6.743052978515625,-0.06570623815059662,0.21596497297286987,5.428027153015137
1772470171621060900,6.753060791015625,-0.1826705038547516,-0.23970560729503632,5.74506950378418
1772470171631070000,6.763070068359375,-0.27659860253334045,-0.49367132782936096,5.9080095291137695
1772470171641078000,6.773078125,-0.3113311231136322,-0.5095369219779968,5.851755619049072
1772470171651085800,6.7830859375,-0.29514098167419434,-0.3863241672515869,5.541712284088135
1772470171661094000,6.793093994140625,-0.259845495223999,-0.24016308784484863,5.029534816741943
1772470171671103000,6.80310302734375,-0.19814938306808472,0.015953905880451202,4.373547077178955
1772470171681110800,6.81311083984375,-0.08984348922967911,0.34133002161979675,3.678828477859497
1772470171691118800,6.823118896484375,0.04619983583688736,0.5882298350334167,2.9932303428649902
1772470171701128000,6.8331279296875,0.1851562112569809,0.7767876386642456,2.2772343158721924
1772470171711135700,6.8431357421875,0.2617394030094147,0.8599032759666443,1.5229421854019165
1772470171721144000,6.85314404296875,0.24397329986095428,0.8673515915870667,0.7755115628242493
1772470171731152100,6.863152099609375,0.18052588403224945,0.7218921780586243,0.2076779305934906
1772470171741161500,6.873161376953125,0.1024872213602066,0.5586535334587097,-0.14916794002056122
1772470171751169300,6.883169189453125,0.05276999622583389,0.3985248804092407,-0.41042962670326233
1772470171761177300,6.89317724609375,0.04202699661254883,0.22690722346305847,-0.7110723257064819
1772470171771186400,6.9031865234375,0.049715541303157806,0.13643218576908112,-1.0392587184906006
1772470171781194200,6.9131943359375,0.05585446581244469,0.15499790012836456,-1.3891267776489258
1772470171791202300,6.923202392578125,0.09891112148761749,0.09998364746570587,-1.765964150428772
1772470171801210400,6.93321044921875,0.16863027215003967,-0.02705402299761772,-2.183126211166382
1772470171811219200,6.94321923828125,0.24304938316345215,-0.13783113658428192,-2.574084997177124
1772470171821227300,6.953227294921875,0.3136909306049347,-0.20241019129753113,-2.809523105621338
1772470171831235300,6.9632353515625,0.35555022954940796,-0.15799640119075775,-2.8389132022857666
1772470171841244200,6.973244140625,0.40961095690727234,-0.1194612979888916,-2.725078821182251
1772470171851252200,6.983252197265625,0.5010457634925842,-0.03289338946342468,-2.555280923843384
1772470171861260300,6.99326025390625,0.6447594165802002,0.025533059611916542,-2.398989200592041
1772470171871268400,7.003268310546875,0.7744207382202148,-0.056770604103803635,-2.3689019680023193
1772470171881277400,7.01327734375,0.8520006537437439,-0.11020590364933014,-2.4714555740356445
1772470171891285500,7.023285400390625,0.9432136416435242,-0.2158399224281311,-2.590970754623413
1772470171901293300,7.033293212890625,0.9430751800537109,-0.39172670245170593,-2.7436461448669434
1772470171911302400,7.043302490234375,0.8390688896179199,-0.48438340425491333,-2.847952365875244
1772470171921310500,7.053310546875,0.7280661463737488,-0.652865469455719,-2.9724740982055664
1772470171931318300,7.063318359375,0.5617333650588989,-0.9211454391479492,-3.285670757293701
1772470171941326300,7.073326416015625,0.26764488220214844,-1.2827445268630981,-3.829902410507202
1772470171951335400,7.08333544921875,-0.07425838708877563,-1.4692622423171997,-4.414756774902344
1772470171961343200,7.09334326171875,-0.36204636096954346,-1.4633533954620361,-4.860136985778809
1772470171971351300,7.103351318359375,-0.4878828525543213,-1.2545117139816284,-4.907349586486816
1772470171981360000,7.113360107421875,-0.38245341181755066,-0.8263182044029236,-4.659794807434082
1772470171991368200,7.1233681640625,-0.12145592272281647,-0.12175096571445465,-4.342527389526367
1772470172001376500,7.13337646484375,0.14957542717456818,0.6998692750930786,-4.047542572021484
1772470172011384300,7.14338427734375,0.29542237520217896,1.3914999961853027,-3.65568208694458
1772470172021393400,7.153393310546875,0.2467149794101715,1.7951849699020386,-2.9038233757019043
1772470172031401500,7.1634013671875,0.18373681604862213,1.808822751045227,-1.5917787551879883
1772470172041409300,7.1734091796875,0.2886805832386017,1.4211517572402954,0.15005911886692047
1772470172051418400,7.18341845703125,0.4916731119155884,0.7340255379676819,1.9798915386199951
1772470172061426400,7.193426513671875,0.5966227054595947,-0.08292634785175323,3.3940467834472656
1772470172071434200,7.203434326171875,0.49910521507263184,-0.7534847259521484,4.187032222747803
1772470172081442300,7.2134423828125,0.339577317237854,-1.0005930662155151,4.545224189758301
1772470172091451400,7.223451416015625,0.27834832668304443,-0.8915719389915466,4.646588325500488
1772470172101459200,7.233459228515625,0.29332655668258667,-0.5673994421958923,4.637007713317871
1772470172111467300,7.24346728515625,0.28473013639450073,-0.19327884912490845,4.617835521697998
1772470172121476400,7.253476318359375,0.20378607511520386,0.0952165275812149,4.594730377197266
1772470172131484200,7.263484130859375,0.02487303875386715,0.2533920407295227,4.573459625244141
1772470172141492500,7.273492431640625,-0.1498056948184967,0.3178114891052246,4.529623031616211
1772470172151501300,7.283501220703125,-0.15038146078586578,0.4153662919998169,4.376108169555664
1772470172161509400,7.29350927734375,-0.05741315707564354,0.34010550379753113,4.026830673217773
1772470172171517400,7.303517333984375,-0.022670891135931015,0.15111401677131653,3.6027486324310303
1772470172181525200,7.313525146484375,-0.11121649295091629,0.05361774191260338,3.2363829612731934
1772470172191534300,7.323534423828125,-0.29422464966773987,-0.053251713514328,3.000626564025879
1772470172201542400,7.33354248046875,-0.45114290714263916,-0.1978280246257782,2.8318119049072266
1772470172211550200,7.34355029296875,-0.5056434273719788,-0.15359479188919067,2.6015713214874268
1772470172221559300,7.353559326171875,-0.4285636842250824,0.08322106301784515,2.2183120250701904
1772470172231567400,7.3635673828125,-0.2528831958770752,0.3732803165912628,1.7230428457260132
1772470172241575200,7.3735751953125,-0.04360527545213699,0.6090109944343567,1.1704137325286865
1772470172251583200,7.383583251953125,0.08114144951105118,0.8106202483177185,0.5885385870933533
1772470172261592300,7.39359228515625,0.12825369834899902,0.9600337743759155,0.0708438977599144
1772470172271600000,7.40360009765625,0.15134942531585693,1.0045725107192993,-0.2506560981273651
1772470172281608400,7.4136083984375,0.1307184398174286,0.9013874530792236,-0.41312938928604126
1772470172291617300,7.4236171875,0.01972215250134468,0.6779961585998535,-0.5562841296195984
1772470172301625300,7.433625244140625,-0.19093215465545654,0.4523908793926239,-0.8465238809585571
1772470172311633400,7.44363330078125,-0.40234053134918213,0.2417534738779068,-1.2824562788009644
1772470172321641200,7.45364111328125,-0.5711824893951416,0.1338779330253601,-1.7917250394821167
1772470172331650300,7.463650390625,-0.7071773409843445,0.2013067752122879,-2.2624895572662354
1772470172341658400,7.473658447265625,-0.7568553686141968,0.2975821793079376,-2.6883435249328613
1772470172351666200,7.483666259765625,-0.7390885949134827,0.5152252912521362,-3.0618152618408203
1772470172361675300,7.49367529296875,-0.6818951368331909,0.5391919612884521,-3.1985790729522705
1772470172371683300,7.503683349609375,-0.6839041709899902,0.4125509262084961,-3.1536219120025635
1772470172381691100,7.513691162109375,-0.7142338156700134,0.2318471223115921,-3.031589984893799
1772470172391699200,7.52369921875,-0.6851518154144287,0.0681426078081131,-3.0103116035461426
1772470172401708300,7.533708251953125,-0.5963939428329468,-0.0548318475484848,-3.0869598388671875
1772470172411716000,7.543716064453125,-0.5453643202781677,-0.13888414204120636,-3.15401291847229
1772470172421724400,7.553724365234375,-0.43063950538635254,-0.35144856572151184,-3.2858691215515137
1772470172431733200,7.563733154296875,-0.2049349993467331,-0.6249898672103882,-3.574042320251465
1772470172441741300,7.5737412109375,0.06462838500738144,-0.9384275078773499,-3.9256784915924072
1772470172451749400,7.583749267578125,0.2000325471162796,-1.321855068206787,-4.262083053588867
1772470172461757400,7.59375732421875,0.159491166472435,-1.6498264074325562,-4.595864295959473
1772470172471766300,7.603766357421875,-0.09802186489105225,-1.8345472812652588,-5.002490997314453
1772470172481774300,7.6137744140625,-0.3684106767177582,-1.8777328729629517,-5.456325054168701
1772470172491782400,7.623782470703125,-0.4978645145893097,-1.848855972290039,-5.933727741241455
1772470172501791200,7.633791259765625,-0.45018529891967773,-1.510938048362732,-6.072836399078369
1772470172511799300,7.64379931640625,-0.3803974390029907,-1.1742361783981323,-5.625468730926514
1772470172521807400,7.653807373046875,-0.24451975524425507,-1.241395115852356,-4.920997142791748
1772470172531815200,7.663815185546875,-0.04908101633191109,-1.4122542142868042,-4.262246131896973
1772470172541824300,7.67382421875,0.1343131810426712,-1.3776142597198486,-3.507688283920288
1772470172551832300,7.683832275390625,0.25127550959587097,-1.142285943031311,-2.4358277320861816
1772470172561840400,7.69384033203125,0.28456592559814453,-0.6462100148200989,-1.0108753442764282
1772470172571849500,7.703849365234375,0.25234779715538025,-0.1954667866230011,0.7046695947647095
1772470172581857300,7.713857177734375,0.14268076419830322,0.08076930046081543,2.4438464641571045
1772470172591865300,7.723865234375,-0.07765533030033112,0.057923637330532074,3.8781492710113525
1772470172601873400,7.733873291015625,-0.4615173041820526,0.04623793810606003,4.733823299407959
1772470172611882200,7.74388232421875,-0.765089750289917,-0.0006787064485251904,5.093203067779541
1772470172621890300,7.753890380859375,-0.7191861271858215,0.2802601456642151,4.810884952545166
1772470172631898400,7.7638984375,-0.47994932532310486,0.3802511990070343,4.599875450134277
1772470172641907200,7.7739072265625,-0.22596889734268188,0.49801409244537354,4.579023838043213
1772470172651915300,7.783915283203125,-0.06165052205324173,0.6969889402389526,4.628161430358887
1772470172661923300,7.79392333984375,-0.026231078431010246,0.8328222036361694,4.651328086853027
1772470172671932200,7.80393212890625,-0.14376170933246613,1.0053035020828247,4.726193428039551
1772470172681940200,7.813940185546875,-0.3481842875480652,1.0453161001205444,4.843599796295166
1772470172691948300,7.8239482421875,-0.5446550250053406,0.8234456777572632,5.0653300285339355
1772470172701956400,7.833956298828125,-0.6606217622756958,0.34611278772354126,5.321465492248535
1772470172711965400,7.84396533203125,-0.6711369752883911,-0.2232193797826767,5.5691399574279785
1772470172721973500,7.853973388671875,-0.6285524964332581,-0.8493109941482544,5.8354387283325195
1772470172731980500,7.86398046875,-0.628565788269043,-1.4119189977645874,6.048838138580322
1772470172741989600,7.87398974609375,-0.6337953805923462,-2.638087272644043,5.977619647979736
1772470172751997400,7.88399755859375,-0.6809034943580627,-3.3873844146728516,5.984691619873047
1772470172762005500,7.894005615234375,-0.7750024795532227,-3.4364750385284424,6.126894950866699
1772470172772013600,7.904013671875,-0.9110045433044434,-3.11903977394104,6.285430908203125
1772470172782022400,7.9140224609375,-1.0066956281661987,-2.932467460632324,6.271341323852539
1772470172792030500,7.924030517578125,-1.1584059000015259,-3.084481954574585,6.144346714019775
1772470172802038800,7.934038818359375,-1.4391939640045166,-3.419560432434082,5.896691799163818
1772470172812047400,7.94404736328125,-1.9034202098846436,-3.255033493041992,5.489548683166504
1772470172822055700,7.9540556640625,-2.1897785663604736,-1.6000229120254517,4.696257591247559
1772470172832063700,7.964063720703125,-2.025891065597534,-0.4113110601902008,2.9813952445983887
1772470172842071600,7.974071533203125,-1.4760199785232544,0.25468137860298157,0.8866883516311646
1772470172852080600,7.98408056640625,-0.6581255197525024,1.003946304321289,-1.0110822916030884
1772470172862088700,7.994088623046875,0.1930813491344452,1.9294984340667725,-2.459298849105835
1772470172872096500,8.004096435546876,0.8065740466117859,2.6146225929260254,-3.6200273036956787
1772470172882105600,8.014105712890625,0.9451789259910583,3.2146780490875244,-4.4762396812438965
1772470172892113400,8.024113525390625,0.6152814626693726,3.6165008544921875,-5.10230016708374
1772470172902121500,8.03412158203125,0.12083124369382858,3.8394086360931396,-5.313715934753418
1772470172912130600,8.044130615234375,-0.12714740633964539,3.5509390830993652,-5.237411022186279
1772470172922138400,8.054138427734374,-0.07835372537374496,2.943450450897217,-4.741048812866211
1772470172932146400,8.064146484375,0.16351908445358276,2.127234697341919,-4.037903308868408
1772470172942154800,8.07415478515625,0.4983116388320923,1.4563877582550049,-3.473432779312134
1772470172952163600,8.08416357421875,0.8003618121147156,0.8079363107681274,-3.223484516143799
1772470172962171600,8.094171630859375,0.9210546612739563,0.4166405498981476,-3.3065898418426514
1772470172972179700,8.1041796875,0.9326708316802979,0.273824542760849,-3.4981348514556885
1772470172982188500,8.1141884765625,0.8525604605674744,0.4504172205924988,-3.6438181400299072
1772470172992196600,8.124196533203126,0.8315332531929016,0.7967986464500427,-3.765225410461426
1772470173002204700,8.13420458984375,0.9270028471946716,1.011147379875183,-3.9740476608276367
1772470173012212500,8.14421240234375,1.0015453100204468,1.0770448446273804,-4.393941879272461
1772470173022221600,8.1542216796875,1.0607892274856567,1.1651400327682495,-5.030745506286621
1772470173032229600,8.164229736328124,1.0555763244628906,1.0745294094085693,-5.8433122634887695
1772470173042237400,8.174237548828126,1.0039081573486328,1.003432035446167,-6.084982872009277
1772470173052246500,8.18424658203125,0.8880660533905029,1.0167230367660522,-5.489773750305176
1772470173062254600,8.194254638671875,0.6892988681793213,0.7571678757667542,-4.807302474975586
1772470173072262400,8.204262451171875,0.5489864945411682,0.6069586873054504,-4.303233623504639
1772470173082271500,8.214271484375,0.4191427230834961,0.16527396440505981,-3.92856764793396
1772470173092279600,8.224279541015624,0.3173668086528778,-0.30061888694763184,-3.31057071685791
1772470173102287600,8.23428759765625,0.11565322428941727,-0.49841704964637756,-2.387944459915161
1772470173112295700,8.244295654296875,-0.13772499561309814,-0.7198910713195801,-1.253737449645996
1772470173122304800,8.2543046875,-0.34697818756103516,-0.48734503984451294,0.1819962114095688
1772470173132312600,8.2643125,-0.4447004795074463,0.19069524109363556,1.5251679420471191
1772470173142320600,8.274320556640625,-0.4909679889678955,0.4442276060581207,2.468231439590454
1772470173152329700,8.284329833984375,-0.4937797784805298,0.41082942485809326,3.096097707748413
1772470173162337500,8.294337646484376,-0.46720167994499207,0.3579002022743225,3.545430898666382
1772470173172345600,8.304345703125,-0.439666211605072,0.18311667442321777,3.9132044315338135
1772470173182354400,8.3143544921875,-0.46464207768440247,-0.0033813000191003084,4.261841297149658
1772470173192362500,8.324362548828125,-0.5230558514595032,-0.12671415507793427,4.577894687652588
1772470173202370600,8.33437060546875,-0.5962861180305481,-0.33675533533096313,4.700536251068115
1772470173212378600,8.344378662109374,-0.7672666907310486,-0.45968949794769287,4.691330909729004
1772470173222387500,8.354387451171876,-0.9341774582862854,-0.5058023929595947,4.745753765106201
1772470173232395800,8.364395751953126,-1.0815051794052124,-0.5079880356788635,4.791849613189697
1772470173242403600,8.374403564453125,-1.1188395023345947,-0.46827733516693115,4.633881568908691
1772470173252412700,8.38441259765625,-1.0869553089141846,-0.43099814653396606,4.340371131896973
1772470173262420700,8.394420654296875,-0.9854410290718079,-0.2816934287548065,3.968757152557373
1772470173272428500,8.404428466796874,-0.8778223991394043,-0.09656059741973877,3.5788280963897705
1772470173282436600,8.4144365234375,-0.7711138129234314,0.1584453582763672,3.2378745079040527
1772470173292445700,8.42444580078125,-0.6880077719688416,0.3911755681037903,2.9421210289001465
1772470173302453500,8.43445361328125,-0.7261120080947876,0.5349445343017578,2.7495927810668945
1772470173312461600,8.444461669921875,-0.8151505589485168,0.5374681353569031,2.5977392196655273
1772470173322470700,8.454470703125,-0.8589245676994324,0.48390430212020874,2.41408634185791
1772470173332478500,8.464478515625,-0.8339422345161438,0.4088601768016815,2.207656145095825
1772470173342486500,8.474486572265626,-0.7590398788452148,0.32304075360298157,1.909239411354065
1772470173352495600,8.48449560546875,-0.6643962264060974,0.17618447542190552,1.479550838470459
1772470173362503400,8.49450341796875,-0.5707466006278992,0.04046282172203064,0.8886050581932068
1772470173372511700,8.50451171875,-0.46183767914772034,0.08283797651529312,0.1821582019329071
1772470173382519600,8.51451953125,-0.3444903790950775,0.2675209939479828,-0.5832488536834717
1772470173392528600,8.524528564453124,-0.20202483236789703,0.4983653724193573,-1.3504059314727783
1772470173402536700,8.53453662109375,-0.06649663299322128,0.6857455372810364,-2.0565426349639893
1772470173412544500,8.54454443359375,0.0238947831094265,0.7095879912376404,-2.7201011180877686
1772470173422553600,8.5545537109375,0.08293215930461884,0.6878719329833984,-3.3115203380584717
1772470173432561700,8.564561767578125,0.09891591966152191,0.5965740084648132,-3.7722995281219482
1772470173442569500,8.574569580078125,0.11562857031822205,0.5049008727073669,-4.025930881500244
1772470173452577500,8.58457763671875,0.190048485994339,0.4826597571372986,-4.007561206817627
1772470173462586600,8.594586669921876,0.28073498606681824,0.4882180392742157,-3.848930835723877
1772470173472594400,8.604594482421875,0.35468775033950806,0.5406016111373901,-3.586690902709961
1772470173482602500,8.6146025390625,0.3855555057525635,0.3092062473297119,-3.3927626609802246
1772470173492611600,8.624611572265625,0.33229389786720276,-0.03357268124818802,-3.3201515674591064
1772470173502619400,8.634619384765625,0.27909427881240845,-0.19412216544151306,-3.3630764484405518
1772470173512627700,8.644627685546874,0.24205580353736877,-0.32573798298835754,-3.3741953372955322
1772470173522636500,8.654636474609376,0.2571954131126404,-0.443167120218277,-3.3266146183013916
1772470173532644600,8.66464453125,0.30027738213539124,-0.5385703444480896,-3.2508962154388428
1772470173542652700,8.674652587890625,0.35317036509513855,-0.7949519753456116,-3.324509859085083
1772470173552660500,8.684660400390625,0.3646096885204315,-1.0726733207702637,-3.6906301975250244
1772470173562669600,8.694669677734375,0.28317949175834656,-1.2903443574905396,-4.33008337020874
1772470173572677600,8.704677734375,0.09743065387010574,-1.2253913879394531,-5.065073490142822
1772470173582685400,8.714685546875,-0.17527325451374054,-0.506603479385376,-5.6564202308654785
1772470173592694500,8.724694580078125,-0.4717949330806732,0.5428153872489929,-5.827925682067871
1772470173602702600,8.73470263671875,-0.7235797643661499,1.1248797178268433,-5.476749420166016
1772470173612710400,8.74471044921875,-0.892503023147583,0.9037036299705505,-4.902904987335205
1772470173622719500,8.754719482421875,-0.9215375185012817,0.6513981819152832,-4.154141902923584
1772470173632727600,8.7647275390625,-0.7585217356681824,0.9209380149841309,-2.9699292182922363
1772470173642735400,8.7747353515625,-0.3911729156970978,1.0396733283996582,-1.3470479249954224
1772470173652743700,8.78474365234375,-0.022266507148742676,1.0185604095458984,0.39326709508895874
1772470173662752500,8.79475244140625,0.13569404184818268,0.8892326354980469,2.0550472736358643
1772470173672760600,8.804760498046875,0.0820196270942688,0.7315972447395325,3.5571579933166504
1772470173682768600,8.8147685546875,-0.06679224967956543,0.47434303164482117,4.6729254722595215
1772470173692777700,8.82477783203125,-0.17237406969070435,0.36290571093559265,5.3461503982543945
1772470173702785500,8.83478564453125,-0.21653813123703003,0.32210326194763184,5.644014358520508
1772470173712793600,8.844793701171875,-0.1296176165342331,0.2398259937763214,5.728264808654785
1772470173722802700,8.854802734375,0.03779728710651398,0.47440195083618164,5.757819652557373
1772470173732811000,8.86481103515625,0.1617029905319214,0.7808289527893066,5.779448986053467
1772470173742819000,8.874819091796875,0.13316868245601654,0.9953432679176331,5.873973846435547
1772470173752827000,8.884826904296874,-0.028181858360767365,1.0027368068695068,5.922232627868652
1772470173762836000,8.8948359375,-0.19687408208847046,0.9831017255783081,5.8534979820251465
1772470173772844000,8.904843994140625,-0.28364813327789307,0.9783077836036682,5.752160549163818
1772470173782851800,8.914851806640625,-0.32177066802978516,0.9318115711212158,5.619194507598877
1772470173792861000,8.92486083984375,-0.31930220127105713,0.8016296029090881,5.427868843078613
1772470173802869000,8.934868896484375,-0.32556143403053284,0.6484291553497314,5.09983491897583
1772470173812877000,8.944876953125,-0.3318696618080139,0.7247058153152466,4.709286689758301
1772470173822886000,8.954885986328126,-0.3621107041835785,0.7934485673904419,4.190441131591797
1772470173832894200,8.964894287109376,-0.39468541741371155,0.8013187050819397,3.562063694000244
1772470173842902000,8.974902099609375,-0.4039928913116455,0.8088160157203674,2.858922243118286
1772470173852910000,8.98491015625,-0.3376098573207855,0.9199028611183167,2.148733139038086
1772470173862919200,8.994919189453125,-0.22909778356552124,1.0301655530929565,1.4789551496505737
1772470173872927000,9.004927001953124,-0.17265768349170685,1.0612268447875977,0.893983781337738
1772470173882935000,9.01493505859375,-0.1833772361278534,0.993418276309967,0.3728496730327606
1772470173892944100,9.024944091796876,-0.2313213348388672,0.8078092932701111,-0.13012051582336426
1772470173902952000,9.034951904296875,-0.2698730528354645,0.5801746249198914,-0.6386289000511169
1772470173912960000,9.0449599609375,-0.3160235285758972,0.41140639781951904,-1.0881134271621704
1772470173922968800,9.05496875,-0.3713083863258362,0.21231229603290558,-1.4326053857803345
1772470173932977000,9.064976806640624,-0.4501970708370209,-0.07361798733472824,-1.7001633644104004
1772470173942985000,9.07498486328125,-0.5034181475639343,-0.26906388998031616,-1.9375935792922974
1772470173952993000,9.084992919921875,-0.5395812392234802,-0.39955317974090576,-2.2345852851867676
1772470173963001900,9.095001953125,-0.5443127751350403,-0.4916442632675171,-2.5782546997070312
1772470173973010200,9.10501025390625,-0.5115071535110474,-0.5253763794898987,-2.9003939628601074
1772470173983018000,9.11501806640625,-0.4718089997768402,-0.49511978030204773,-3.1382203102111816
1772470173993027000,9.125027099609374,-0.4298003017902374,-0.5299390554428101,-3.317619800567627
1772470174003035100,9.13503515625,-0.40501922369003296,-0.6083441376686096,-3.4592714309692383
1772470174013043000,9.14504296875,-0.395827054977417,-0.6938518285751343,-3.526634454727173
1772470174023052000,9.155052001953125,-0.40945249795913696,-0.8021637201309204,-3.5663459300994873
1772470174033060000,9.16506005859375,-0.3905280828475952,-0.7757003903388977,-3.5543227195739746
1772470174043068000,9.17506787109375,-0.32322221994400024,-0.7284456491470337,-3.4574568271636963
1772470174053076000,9.185075927734376,-0.21662786602973938,-0.6408700346946716,-3.2781035900115967
1772470174063085000,9.1950849609375,-0.12283679842948914,-0.7585113644599915,-3.0835673809051514
1772470174073092900,9.2050927734375,-0.1218319907784462,-1.0331125259399414,-3.0269598960876465
1772470174083101000,9.215100830078125,-0.19982093572616577,-1.3009250164031982,-3.204573392868042
1772470174093110000,9.225110107421875,-0.328059583902359,-1.450430154800415,-3.5034942626953125
1772470174103117800,9.235117919921874,-0.48522406816482544,-1.5117796659469604,-3.7513725757598877
1772470174113126100,9.245126220703124,-0.5688491463661194,-1.212418794631958,-3.836130380630493
1772470174123135000,9.255135009765626,-0.5735959410667419,-0.805173397064209,-3.698340892791748
1772470174133143000,9.26514306640625,-0.4568861424922943,-0.6332655549049377,-3.407604455947876
1772470174143151000,9.275151123046875,-0.30353453755378723,-0.6339671611785889,-3.1644396781921387
1772470174153160200,9.28516015625,-0.1792546808719635,-0.43188247084617615,-3.035175085067749
1772470174163168000,9.29516796875,-0.1452668160200119,-0.10149766504764557,-2.8584322929382324
1772470174173176000,9.305176025390624,-0.21204984188079834,0.04304033890366554,-2.698577642440796
1772470174183184000,9.315183837890626,-0.22455450892448425,0.25202587246894836,-2.342409133911133
1772470174193193000,9.32519287109375,-0.13116410374641418,0.5006058216094971,-1.6530001163482666
1772470174203201000,9.335200927734375,0.12008870393037796,0.6300068497657776,-0.5644575357437134
1772470174213208800,9.345208740234375,0.4536733329296112,0.44855740666389465,0.6824906468391418
1772470174223218000,9.355218017578125,0.6806169748306274,0.17426809668540955,1.8295828104019165
1772470174233226000,9.36522607421875,0.6950888633728027,-0.0059229908511042595,2.706387519836426
1772470174243233800,9.37523388671875,0.5491715669631958,-0.1475197970867157,3.3338491916656494
1772470174253243000,9.385242919921875,0.3842630982398987,-0.20044958591461182,3.7305145263671875
1772470174263251000,9.3952509765625,0.315767377614975,-0.1827901303768158,3.943957567214966
1772470174273259000,9.405259033203125,0.33582231402397156,-0.08376820385456085,4.034119606018066
1772470174283267000,9.41526708984375,0.325198233127594,-0.09241392463445663,4.0235395431518555
1772470174293276200,9.425276123046874,0.2704809308052063,-0.13663198053836823,3.950613021850586
1772470174303284000,9.435283935546876,0.1388469934463501,-0.17731213569641113,3.81728196144104
1772470174313292000,9.4452919921875,-0.005417501088231802,-0.02907978743314743,3.644268035888672
1772470174323301000,9.455301025390625,-0.10807690769433975,0.17154982686042786,3.480172872543335
1772470174333309000,9.465308837890625,-0.14767757058143616,0.2800009250640869,3.3406922817230225
1772470174343317000,9.47531689453125,-0.1981802135705948,0.3567422926425934,3.2540109157562256
1772470174353326000,9.485326171875,-0.2788692116737366,0.44128113985061646,3.1442208290100098
1772470174363334000,9.495333984375,-0.2982080280780792,0.5616204738616943,3.0299980640411377
1772470174373342000,9.505342041015625,-0.24921943247318268,0.5733791589736938,2.9161953926086426
1772470174383350000,9.51535009765625,-0.19184069335460663,0.5341878533363342,2.7601089477539062
1772470174393358800,9.52535888671875,-0.20338895916938782,0.4897617995738983,2.547694206237793
1772470174403367200,9.5353671875,-0.28237560391426086,0.46843644976615906,2.298388719558716
1772470174413375000,9.545375,-0.35875800251960754,0.4732820987701416,2.0061275959014893
1772470174423384000,9.555384033203126,-0.38848572969436646,0.4567519426345825,1.6433782577514648
1772470174433392000,9.56539208984375,-0.37787196040153503,0.3389371335506439,1.2091830968856812
1772470174443400000,9.57539990234375,-0.3659895956516266,0.10802771896123886,0.6799787878990173
1772470174453409000,9.585408935546875,-0.3274776339530945,-0.028531726449728012,0.09732522815465927
1772470174463417000,9.5954169921875,-0.2572723627090454,-0.03948541358113289,-0.5809768438339233
1772470174473425000,9.6054248046875,-0.14892059564590454,0.07412797212600708,-1.3135820627212524
1772470174483433000,9.615432861328125,-0.020164016634225845,0.2066756635904312,-2.024829626083374
1772470174493442000,9.625442138671875,0.061489298939704895,0.2571127116680145,-2.6469576358795166
1772470174503449900,9.635449951171875,0.0816541463136673,0.3185991942882538,-3.145277500152588
1772470174513458000,9.6454580078125,0.07832546532154083,0.3230583667755127,-3.429910659790039
1772470174523467000,9.655467041015624,0.0790284126996994,0.25800153613090515,-3.486743688583374
1772470174533474800,9.665474853515626,0.08726397156715393,0.13326171040534973,-3.331486701965332
1772470174543483100,9.675483154296876,0.09246918559074402,-0.09952597320079803,-3.073763370513916
1772470174553492000,9.685491943359375,0.0857234001159668,-0.3507358431816101,-2.7933783531188965
1772470174563500000,9.6955,0.044017355889081955,-0.505122721195221,-2.5279550552368164
1772470174573508000,9.705508056640625,-0.013643275015056133,-0.583564281463623,-2.246845245361328
1772470174583517200,9.71551708984375,-0.022288823500275612,-0.632491409778595,-1.9506269693374634
1772470174593525000,9.72552490234375,0.051102034747600555,-0.6943723559379578,-1.684046983718872
1772470174603533000,9.735532958984376,0.16816945374011993,-0.627878725528717,-1.4524471759796143
1772470174613540900,9.745540771484375,0.2519245147705078,-0.6399825215339661,-1.3336584568023682
1772470174623550000,9.755550048828125,0.2713142931461334,-0.7722605466842651,-1.4020313024520874
1772470174633558000,9.76555810546875,0.24648138880729675,-0.7963805198669434,-1.604699730873108
1772470174643565800,9.77556591796875,0.17138203978538513,-0.771536648273468,-1.891682744026184
1772470174653575000,9.785574951171874,0.0468108169734478,-0.6272382736206055,-2.122206926345825
1772470174663583000,9.7955830078125,-0.027638714760541916,-0.38055220246315,-2.260194778442383
1772470174673590800,9.8055908203125,-0.0411265566945076,-0.0949191227555275,-2.2789723873138428
1772470174683600000,9.815599853515625,-0.05346884950995445,0.05623769760131836,-2.1678261756896973
1772470174693608000,9.82560791015625,-0.04041270166635513,0.0772566944360733,-2.0609099864959717
1772470174703616000,9.835615966796874,-0.06406357139348984,0.10910297930240631,-1.9686126708984375
1772470174713624000,9.8456240234375,-0.1174173355102539,0.22916387021541595,-1.8805913925170898
1772470174723633200,9.855633056640626,-0.15586192905902863,0.47302713990211487,-1.7520406246185303
1772470174733641200,9.86564111328125,-0.14910788834095,0.620401918888092,-1.569474220275879
1772470174743649000,9.87564892578125,-0.11831603199243546,0.6575706005096436,-1.2881686687469482
1772470174753658000,9.885658203125,-0.13344039022922516,0.6320366859436035,-0.8357939720153809
1772470174763666200,9.895666259765624,-0.042856890708208084,0.5186977982521057,-0.31534498929977417
1772470174773674000,9.905674072265626,0.06181519106030464,0.32571345567703247,0.18641799688339233
1772470174783683000,9.91568310546875,0.16473804414272308,0.18349546194076538,0.5153787136077881
1772470174793691100,9.925691162109375,0.22982409596443176,0.11242368817329407,0.7858717441558838
1772470174803699000,9.935698974609375,0.28401944041252136,0.005101710557937622,1.102024793624878
1772470174813708000,9.9457080078125,0.35327574610710144,-0.03920929506421089,1.4556105136871338
1772470174823716000,9.955716064453124,0.4059711992740631,-0.07336515933275223,1.8046280145645142
1772470174833724000,9.965723876953126,0.42280155420303345,-0.09717009216547012,2.140814781188965
1772470174843732200,9.975732177734375,0.39204996824264526,-0.12211129069328308,2.470792531967163
1772470174853741000,9.985740966796875,0.30501413345336914,-0.1423529088497162,2.7825517654418945
1772470174863749000,9.9957490234375,0.17340773344039917,-0.16792374849319458,3.0181498527526855
1772470174873757200,10.005757080078125,0.05289702117443085,-0.11628425121307373,3.162018299102783
1772470174883766300,10.015766357421874,-0.030922265723347664,-0.06170767918229103,3.2288405895233154
1772470174893774000,10.025774169921876,-0.07923787087202072,-0.00845111533999443,3.1951987743377686
1772470174903782100,10.0357822265625,-0.09332790970802307,0.24462471902370453,3.1174421310424805
1772470174913791200,10.045791259765625,-0.07882034033536911,0.4328407049179077,3.049779176712036
1772470174923799000,10.055799072265625,-0.0973590761423111,0.4833863377571106,2.9967854022979736
1772470174933807000,10.06580712890625,-0.12762883305549622,0.45871320366859436,2.929384231567383
1772470174943815000,10.07581494140625,-0.17099934816360474,0.40685272216796875,2.85530161857605
1772470174953824000,10.085823974609376,-0.2352832555770874,0.40059909224510193,2.7833526134490967
1772470174963832000,10.09583203125,-0.3343631625175476,0.4048793911933899,2.7374424934387207
1772470174973840000,10.10583984375,-0.4073804020881653,0.35363829135894775,2.6881372928619385
1772470174983849000,10.115848876953125,-0.44329676032066345,0.21117635071277618,2.587704658508301
1772470174993857000,10.12585693359375,-0.4224625825881958,0.1804887354373932,2.365307331085205
1772470175003865000,10.135864990234374,-0.41968199610710144,0.11587165296077728,2.015552282333374
1772470175013874200,10.145874267578124,-0.501268208026886,-0.05781784653663635,1.4888381958007812
1772470175023882200,10.15588232421875,-0.6186049580574036,-0.1373312920331955,0.8654027581214905
1772470175033890000,10.16589013671875,-0.6484017372131348,-0.0954086035490036,0.23891329765319824
1772470175043899100,10.175899169921875,-0.5765860676765442,-0.012906034477055073,-0.3341549336910248
1772470175053907200,10.1859072265625,-0.4582569897174835,0.09764178097248077,-0.8057299256324768
1772470175063915000,10.1959150390625,-0.35590827465057373,0.13065873086452484,-1.1886975765228271
1772470175073923000,10.205923095703126,-0.24557483196258545,0.06273986399173737,-1.456870675086975
1772470175083932200,10.21593212890625,-0.14634232223033905,-0.03998057171702385,-1.639670491218567
1772470175093940000,10.22593994140625,-0.050147611647844315,-0.13291610777378082,-1.7287904024124146
1772470175103948000,10.235947998046875,0.0039040979463607073,-0.3292965590953827,-1.720080018043518
1772470175113957000,10.24595703125,0.059907712042331696,-0.5716394186019897,-1.6126188039779663
1772470175123965000,10.25596484375,0.06911312788724899,-0.7134313583374023,-1.477635145187378
1772470175133973200,10.26597314453125,0.05991324037313461,-0.7196458578109741,-1.3185219764709473
1772470175143982000,10.275982177734376,0.044713184237480164,-0.7086178064346313,-1.2018625736236572
1772470175153990100,10.285990234375,0.04282047599554062,-0.6001887917518616,-1.174599528312683
1772470175163998200,10.295998291015625,0.13147443532943726,-0.46306124329566956,-1.2733737230300903
1772470175174007300,10.30600732421875,0.20071502029895782,-0.3057706654071808,-1.5238914489746094
1772470175184015000,10.31601513671875,0.22310462594032288,-0.04250829294323921,-1.8700727224349976
1772470175194023200,10.326023193359376,0.14719706773757935,0.3041471242904663,-2.2179083824157715
1772470175204031000,10.336031005859375,0.050879936665296555,0.657014787197113,-2.467902421951294
1772470175214040000,10.3460400390625,0.035426411777734756,0.7981402277946472,-2.5139472484588623
1772470175224048000,10.356048095703125,0.11647025495767593,0.8221704363822937,-2.360499620437622
1772470175234056000,10.366055908203125,0.16356080770492554,0.7367951273918152,-2.180711030960083
1772470175244065000,10.37606494140625,0.14527954161167145,0.495082825422287,-2.146735429763794
1772470175254073000,10.386072998046876,0.09536763280630112,0.07280665636062622,-2.15986704826355
1772470175264081000,10.396080810546875,0.10733116418123245,-0.2911767065525055,-2.055290460586548
1772470175274090000,10.406090087890625,0.17776910960674286,-0.44047805666923523,-1.8657255172729492
1772470175284098000,10.41609814453125,0.2984631657600403,-0.44346749782562256,-1.5768616199493408
1772470175294106000,10.426106201171875,0.43343695998191833,-0.4101065993309021,-1.1378685235977173
1772470175304115000,10.436114990234374,0.5006014108657837,-0.32305625081062317,-0.650223433971405
1772470175314123300,10.446123291015626,0.5477454662322998,-0.24067535996437073,-0.11687563359737396
1772470175324131000,10.456131103515625,0.5824111104011536,-0.23268680274486542,0.4420931935310364
1772470175334139100,10.46613916015625,0.5851996541023254,-0.15329796075820923,1.0699621438980103
1772470175344148200,10.476148193359375,0.5439813137054443,-0.23702625930309296,1.7104756832122803
1772470175354156000,10.486156005859375,0.48536646366119385,-0.3833160996437073,2.260389804840088
1772470175364164000,10.4961640625,0.40483200550079346,-0.3922514021396637,2.6267828941345215
1772470175374173200,10.506173095703126,0.337240993976593,-0.325100839138031,2.810591459274292
1772470175384181000,10.516180908203125,0.30033987760543823,-0.22342661023139954,2.889470100402832
1772470175394189000,10.52618896484375,0.27229544520378113,-0.14154106378555298,2.9669857025146484
1772470175404198100,10.5361982421875,0.26192134618759155,-0.09112609177827835,3.047300338745117
1772470175414206000,10.5462060546875,0.22004657983779907,-0.09038013964891434,3.1158883571624756
1772470175424214000,10.556214111328124,0.17017842829227448,-0.1216750293970108,3.0869626998901367
1772470175434223000,10.56622314453125,0.11241686344146729,-0.10134392976760864,2.950225353240967
1772470175444231000,10.57623095703125,0.02037128433585167,-0.009666002355515957,2.767646551132202
1772470175454239200,10.5862392578125,-0.052708253264427185,0.1629699468612671,2.5841429233551025
1772470175464247000,10.5962470703125,-0.045787423849105835,0.33053871989250183,2.401113510131836
1772470175474256100,10.606256103515625,-0.03133045509457588,0.3757117986679077,2.2326462268829346
1772470175484264200,10.61626416015625,-0.06829706579446793,0.41950029134750366,2.0685999393463135
1772470175494272000,10.62627197265625,-0.0713660940527916,0.5722978115081787,1.933974027633667
1772470175504281000,10.636281005859376,-0.02608489990234375,0.7142695784568787,1.8143701553344727
1772470175514289200,10.6462890625,0.013648665510118008,0.674257218837738,1.726848840713501
1772470175524297000,10.656296875,-0.04701555147767067,0.41252273321151733,1.707390308380127
1772470175534306000,10.66630615234375,-0.1550552099943161,0.13644826412200928,1.7314612865447998
1772470175544314000,10.676314208984374,-0.25245100259780884,-0.1382894665002823,1.8228524923324585
1772470175554322000,10.686322021484376,-0.24961844086647034,-0.6017423272132874,1.8969818353652954
1772470175564331000,10.6963310546875,-0.20577949285507202,-1.0591481924057007,1.9405133724212646
1772470175574339000,10.706339111328125,-0.20349690318107605,-1.4916678667068481,1.949834942817688
1772470175584347100,10.71634716796875,-0.18170617520809174,-1.6387330293655396,1.8752362728118896
1772470175594355200,10.726355224609375,-0.1525171399116516,-1.6656091213226318,1.6646305322647095
1772470175604364000,10.736364013671874,-0.022664133459329605,-1.4896267652511597,1.3331894874572754
1772470175614372000,10.7463720703125,0.2744780480861664,-1.2220648527145386,0.8618635535240173
1772470175624380200,10.756380126953125,0.5804786682128906,-0.9305722117424011,0.2807435989379883
1772470175634389200,10.76638916015625,0.9457954168319702,-0.796773374080658,-0.2740924656391144
1772470175644397000,10.77639697265625,1.26732337474823,-0.7185096740722656,-0.7036678194999695
1772470175654405000,10.786405029296875,1.6331945657730103,-0.9331210851669312,-0.8838019371032715
1772470175664414200,10.796414306640624,1.9871506690979004,-1.1805709600448608,-1.0143910646438599
1772470175674422000,10.806422119140626,2.0726511478424072,-1.5052193403244019,-1.198545217514038
1772470175684430000,10.81643017578125,1.9776747226715088,-1.543688178062439,-1.3762469291687012
1772470175694439200,10.826439208984375,1.9570306539535522,-1.1691573858261108,-1.54476797580719
1772470175704447000,10.836447021484375,1.874441146850586,-0.2642510235309601,-1.5317237377166748
1772470175714455000,10.846455078125,1.5372141599655151,1.8179787397384644,-0.9678601622581482
1772470175724463000,10.856463134765624,1.1947542428970337,3.6944446563720703,-0.9390337467193604
1772470175734471700,10.8664716796875,0.9183570146560669,2.338789701461792,-2.4958510398864746
1772470175744480000,10.87647998046875,1.2649167776107788,-0.18797890841960907,-3.5457890033721924
1772470175754487800,10.88648779296875,1.2472834587097168,0.2655180096626282,-3.42687726020813
1772470175764497000,10.896496826171875,0.7718848586082458,0.8324872851371765,-3.548448324203491
1772470175774505000,10.9065048828125,0.3572559654712677,0.5350756049156189,-3.6654443740844727
1772470175784512800,10.9165126953125,0.16365893185138702,0.017612367868423462,-2.7781927585601807
1772470175794521900,10.92652197265625,0.06149875372648239,-0.14952069520950317,-1.9435327053070068
1772470175804530000,10.936530029296875,-0.08766776323318481,-0.41692695021629333,-1.5089256763458252
1772470175814537700,10.946537841796875,-0.32982712984085083,-0.5960596799850464,-1.4234592914581299
1772470175824546800,10.956546875,-0.6410995125770569,-0.37322893738746643,-1.3957829475402832
1772470175834555000,10.966554931640625,-0.9449576735496521,0.11090739071369171,-1.3941662311553955
1772470175844562700,10.976562744140624,-1.1916792392730713,0.8423570394515991,-1.4586689472198486
1772470175854570800,10.98657080078125,-1.2473595142364502,1.5942156314849854,-1.2222156524658203
1772470175864579800,10.996579833984375,-1.0621161460876465,2.038426399230957,-0.43842989206314087
1772470175874587600,11.006587646484375,-0.8746021389961243,2.1233277320861816,0.5612035989761353
1772470175884596000,11.016595947265625,-0.8873036503791809,1.676051139831543,1.2536611557006836
1772470175894604800,11.026604736328125,-1.4061952829360962,1.1509109735488892,1.4019206762313843
1772470175904612900,11.03661279296875,-1.67417573928833,0.5310047268867493,1.6104329824447632
1772470175914621000,11.046620849609376,-1.580790638923645,-0.13915635645389557,1.7032567262649536
1772470175924630000,11.056630126953126,-1.3914188146591187,-0.43576735258102417,1.8842259645462036
1772470175934637800,11.066637939453125,-0.9345505237579346,-0.490660697221756,2.117126226425171
1772470175944646000,11.07664599609375,-0.48118436336517334,-0.6160472631454468,2.1853702068328857
1772470175954655000,11.086655029296875,-0.1807829886674881,-0.7536152601242065,2.112455368041992
1772470175964662800,11.096662841796874,-0.030027177184820175,-0.8528033494949341,1.947625994682312
1772470175974670800,11.1066708984375,0.0025004069320857525,-0.872677206993103,1.7206463813781738
1772470175984678700,11.1166787109375,-0.004047307185828686,-0.7743276357650757,1.4137485027313232
1772470175994687700,11.126687744140625,0.015562613494694233,-0.5980913639068604,1.0129930973052979
1772470176004695800,11.13669580078125,0.3317030072212219,-0.1673976629972458,0.6358150839805603
1772470176014703900,11.146703857421874,0.6433442234992981,0.06829501688480377,0.30323395133018494
1772470176024712700,11.156712646484374,0.7628248333930969,0.17037175595760345,0.11440043151378632
1772470176034721000,11.166720947265626,0.782916247844696,0.36017709970474243,0.11421534419059753
1772470176044728800,11.176728759765625,0.7387573719024658,0.5850396156311035,0.2649037837982178
1772470176054738000,11.186738037109375,0.6469970941543579,0.8387209177017212,0.5232905745506287
1772470176064746000,11.19674609375,0.5784226655960083,0.9759623408317566,0.8938772082328796
1772470176074753800,11.20675390625,0.5287347435951233,0.9902493953704834,1.3074959516525269
1772470176084763000,11.216762939453124,0.5437240600585938,0.8621221780776978,1.700285792350769
1772470176094771000,11.22677099609375,0.5964331030845642,0.6548027992248535,2.037315607070923
1772470176104778800,11.23677880859375,0.7297356724739075,0.4021076560020447,2.336268663406372
1772470176114786800,11.246786865234375,0.8010660409927368,0.08593370765447617,2.58801531791687
1772470176124796000,11.2567958984375,0.805092990398407,0.00044628651812672615,2.795954942703247
1772470176134803700,11.2668037109375,0.7508094906806946,-0.08341319113969803,2.9851834774017334
1772470176144811800,11.276811767578126,0.666358470916748,-0.35539519786834717,3.113557815551758
1772470176154820900,11.28682080078125,0.5919785499572754,-0.6462088823318481,3.179478406906128
1772470176164828700,11.29682861328125,0.4593774676322937,-0.8067941665649414,3.037593126296997
1772470176174837000,11.3068369140625,0.3275342285633087,-0.8881409764289856,2.661238193511963
1772470176184845800,11.316845703125,0.23521147668361664,-0.7675808668136597,2.2007124423980713
1772470176194854000,11.32685400390625,0.15105745196342468,-0.6144970059394836,1.7445471286773682
1772470176204862000,11.336862060546874,0.09926989674568176,-0.42709898948669434,1.2889721393585205
1772470176214871000,11.34687109375,0.11880897730588913,-0.18609143793582916,0.8331449031829834
1772470176224878800,11.35687890625,0.1739005148410797,-0.008676936849951744,0.4151878356933594
1772470176234887000,11.366886962890625,0.2367045134305954,0.14096368849277496,0.0961533710360527
1772470176244894700,11.376894775390625,0.2989858090877533,0.29223790764808655,-0.09968624264001846
1772470176254903800,11.38690380859375,0.325154572725296,0.4158906042575836,-0.22422552108764648
1772470176264912000,11.396911865234374,0.36694449186325073,0.4382912814617157,-0.4102506637573242
1772470176274919700,11.406919677734376,0.39027032256126404,0.5246142148971558,-0.7339823842048645
1772470176284928800,11.4169287109375,0.37128129601478577,0.5822544693946838,-1.183834195137024
1772470176294936800,11.426936767578125,0.404514342546463,0.5355660915374756,-1.8221189975738525
1772470176304944600,11.436944580078125,0.5123546719551086,0.449253648519516,-2.665269374847412
1772470176314953700,11.44695361328125,0.6356997489929199,0.5820133090019226,-3.6236889362335205
1772470176324961800,11.4569619140625,0.6932092308998108,0.943225085735321,-4.599669456481934
1772470176334969900,11.466969970703126,0.6497445702552795,1.1595560312271118,-5.635442733764648
1772470176344978700,11.476978759765625,0.5592146515846252,1.0796641111373901,-6.522168159484863
1772470176354987000,11.486987060546875,0.5508353114128113,-0.47044500708580017,-6.383194923400879
1772470176364994800,11.496994873046875,0.2457854300737381,0.4633522927761078,-5.145462989807129
1772470176375004000,11.50700390625,-0.09139206260442734,1.9656044244766235,-3.5294768810272217
1772470176385012000,11.517011962890624,-0.2735489308834076,1.7452683448791504,-2.412499189376831
1772470176395019800,11.527019775390626,-0.41310203075408936,0.9342421293258667,-1.7220958471298218
1772470176405027800,11.53702783203125,-0.3807830810546875,0.39792943000793457,-1.1928874254226685
1772470176415037000,11.547036865234375,-0.184539794921875,0.15761348605155945,-0.7658050656318665
1772470176425044700,11.557044677734375,0.11127375811338425,0.057582542300224304,-0.36712920665740967
1772470176435052800,11.567052734375,0.4468054175376892,0.040433917194604874,-0.01652298867702484
1772470176445062000,11.577061767578124,0.70936119556427,-0.012768803164362907,0.303086519241333
1772470176455069700,11.587069580078126,0.8403327465057373,-0.07583539187908173,0.5811498761177063
1772470176465077800,11.597077880859375,0.7841289043426514,-0.15874828398227692,0.7791853547096252
1772470176475086800,11.6070869140625,0.5535444021224976,-0.2621321976184845,0.8981716632843018
1772470176485095000,11.617094970703125,0.2577458620071411,-0.3122847080230713,0.9527549743652344
1772470176495103000,11.62710302734375,0.04917163401842117,-0.29412195086479187,0.9822710752487183
1772470176505111800,11.63711181640625,-0.03244046866893768,-0.26661351323127747,0.9755379557609558
1772470176515119900,11.647119873046876,-0.04464413970708847,-0.2504422664642334,0.9354544281959534
1772470176525128000,11.6571279296875,-0.027650827541947365,-0.2228579819202423,0.8624162077903748
1772470176535137000,11.667136962890625,-0.0008000381058081985,-0.15207356214523315,0.7709105014801025
1772470176545144800,11.677144775390625,0.025533750653266907,-0.08322199434041977,0.6776239275932312
1772470176555153000,11.68715283203125,0.05467379465699196,-0.01865844801068306,0.6058919429779053
1772470176565160700,11.69716064453125,0.06757701188325882,0.03470556437969208,0.5214906334877014
1772470176575169800,11.707169677734376,0.05311231687664986,0.079784095287323,0.4118211269378662
1772470176585177900,11.717177734375,0.05524105951189995,0.0930856317281723,0.3107231557369232
1772470176595185700,11.727185546875,0.08449108898639679,0.06067948788404465,0.23045332729816437
1772470176605194800,11.73719482421875,0.12705878913402557,0.01124010980129242,0.15925727784633636
1772470176615202800,11.747202880859374,0.14873291552066803,-0.06327620148658752,0.10140357166528702
1772470176625211000,11.7572109375,0.1631615310907364,-0.162903293967247,0.07405322045087814
1772470176635219700,11.7672197265625,0.16421321034431458,-0.2996329069137573,0.04552677273750305
1772470176645228000,11.77722802734375,0.15434466302394867,-0.4795169234275818,-0.025577303022146225
1772470176655235800,11.78723583984375,0.12585310637950897,-0.5615041851997375,-0.09503387659788132
1772470176665245000,11.797244873046875,0.07815727591514587,-0.5289071798324585,-0.14433754980564117
1772470176675253000,11.8072529296875,0.019188232719898224,-0.5388695001602173,-0.1439838856458664
1772470176685260800,11.8172607421875,-0.04142177477478981,-0.6054526567459106,-0.11927386373281479
1772470176695270000,11.827269775390626,-0.12152433395385742,-0.6407827138900757,-0.09303054213523865
1772470176705278000,11.83727783203125,-0.22435855865478516,-0.6834905743598938,-0.14991043508052826
