time,seconds_elapsed,z,y,x
1772469472439546000,0.186546142578125,0.05638122791349887,0.21062018798887727,-0.2802314112883061
1772469472449553000,0.196552978515625,0.21829320683479309,0.29395225893110033,-0.21623744334876535
1772469472459560200,0.206560302734375,0.27887071739435193,0.3058203913792968,-0.05663176860846579
1772469472469567000,0.21656689453125,0.2872860790401697,0.2778101024255156,-0.02460018824934959
1772469472479574300,0.22657421875,0.2734539530426264,0.25175036301761866,-0.15541436053030191
1772469472489581000,0.2365810546875,0.2779617858558893,0.14419190557450054,-0.34575660738311703
1772469472499588000,0.246588134765625,0.4238713090032339,0.07618336823135614,-0.4742379528023302
1772469472509595100,0.25659521484375,0.5472352383434772,0.029651918680965898,-0.5227388757947832
1772469472519602200,0.266602294921875,0.4284966307163238,0.016918693836033342,-0.3628120793413371
1772469472529609200,0.276609130859375,0.2689683320611715,0.10347250330373645,-0.24202983705736694
1772469472539616000,0.286615966796875,0.2105190657019615,0.1495557706952095,-0.13845708824954925
1772469472549623000,0.296623046875,0.3441337554216385,0.08882935318425297,0.04569982103183865
1772469472559630000,0.306630126953125,0.5475035338908434,-0.08870148902088403,0.09168437728919088
1772469472569637000,0.31663720703125,0.6109072077870369,-0.2572255795583129,-0.20566746095232663
1772469472579644200,0.32664404296875,0.6146978322416543,-0.31938787509128447,-0.5992356938894837
1772469472589651200,0.336651123046875,0.6163765791088343,-0.3122308429434895,-0.8966243570100516
1772469472599657000,0.346656982421875,0.7746633532702922,-0.24654227298051118,-0.9713502199094742
1772469472609664300,0.356664306640625,1.018712932652235,-0.24491964021474122,-0.8057665667381138
1772469472619671000,0.366671142578125,1.1494114426642656,-0.16235007807761428,-0.4232247547280043
1772469472629678000,0.376677978515625,1.1967723287761212,-0.1226399989798665,0.033002982674539084
1772469472639685000,0.38668505859375,1.1081728388249874,-0.16254019382223486,0.29662483914121984
1772469472649692200,0.396692138671875,0.7595739206880331,-0.15528364682272075,0.29801885078288615
1772469472659699200,0.40669921875,0.23910218610763548,-0.04612564522847533,0.16912713446449487
1772469472669706000,0.4167060546875,-0.1877355714857578,0.008680734583735465,0.062022887062281366
1772469472679713000,0.426713134765625,-0.4824082536458969,0.04628258935585618,0.17815226203911005
1772469472689720000,0.436719970703125,-0.9631348378151655,0.03569894376024604,0.2757305927377194
1772469472699727000,0.44672705078125,-1.5939789182156323,0.060172436890006065,0.33638343355581163
1772469472709734100,0.456734130859375,-2.093001622053981,0.142404437635839,0.5482386432323605
1772469472719741200,0.4667412109375,-2.4175118085950613,0.09887874577268957,0.6375315953403711
1772469472729748000,0.476748046875,-2.63516028778553,-0.07007058443948626,0.5096908859122544
1772469472739755300,0.48675537109375,-2.4742069247633216,-0.15757190389037132,0.33594774555228646
1772469472749762000,0.496761962890625,-1.8161545194417237,-0.09807473591342568,0.3356089420519769
1772469472759769000,0.50676904296875,-0.9653449150800705,-0.12308584305122494,0.4661223778206855
1772469472769776000,0.516776123046875,-0.41719373093545437,-0.3327034298688173,0.5775115725331008
1772469472779783000,0.526782958984375,-0.29686639281213284,-0.4484790960371494,0.7612006451070308
1772469472789790200,0.536790283203125,-0.4530471346050501,-0.5000543849736452,0.7976004306130111
1772469472799797000,0.546796875,-0.8913426902800798,-0.5723575507707893,0.47079636098109184
1772469472809804300,0.55680419921875,-1.1624573867201804,-0.4612660968959331,0.1447728472676128
1772469472819811000,0.56681103515625,-1.0474942059785126,-0.1809939882710576,-0.045033137284033
1772469472829818000,0.576818115234375,-0.6734720927715301,0.08821692037433386,0.036056634624116124
1772469472839825200,0.5868251953125,-0.29464345606565473,0.14087167511060833,0.21907091320902108
1772469472849832000,0.59683203125,0.16090367866158484,0.14872048891484738,0.4040150273453444
1772469472859839200,0.606839111328125,0.4280395345985889,0.06147314422503113,0.26447401631660755
1772469472869846000,0.616845947265625,0.44122167225480075,0.03460647234842181,-0.08927357155410573
1772469472879853000,0.62685302734375,0.4864052143275737,0.15588555823862552,-0.30668150172065944
1772469472889860000,0.636860107421875,0.6620604719191789,0.2607607679471373,-0.30755327958650885
1772469472899867100,0.6468671875,0.8021849819242953,0.22376184750422834,-0.15929790569907054
1772469472909873000,0.656872802734375,0.8714186771482229,0.1921545569717884,0.02685322787314653
1772469472919880200,0.666880126953125,0.8851362368553877,0.29947043783068655,0.16512980845663697
1772469472929887000,0.676886962890625,0.8738847750008105,0.38119258935824035,0.2365104343150742
1772469472939894000,0.68689404296875,0.8395341771095991,0.39188670959100125,0.2379485590931028
1772469472949901000,0.696901123046875,0.7676549358129501,0.29237931052595373,0.0074267889998853205
1772469472959908000,0.706908203125,0.7093173131346702,0.2301411732777953,-0.22500340853054074
1772469472969915100,0.7169150390625,0.7842547729581594,0.2804616398476064,-0.2966967718662694
1772469472979922200,0.726922119140625,0.7538456061691046,0.26597660289928315,-0.23500709881372747
1772469472989929000,0.736928955078125,0.5925859536767005,0.2516983405694365,-0.11496371046463028
1772469472999936000,0.74693603515625,0.36869302713871,0.2585138658031821,-0.07952630371740087
1772469473009943000,0.756943115234375,0.17852175293862818,0.28027897675707936,-0.1414831946050748
1772469473019950000,0.7669501953125,0.04838379941880703,0.27879429115727544,-0.209593548354879
1772469473029957000,0.77695703125,0.004460486540198326,0.22137290654107927,-0.26659151992723346
1772469473039964000,0.7869638671875,-0.10011457117795944,0.16653876193910835,-0.39464715074766427
1772469473049971200,0.79697119140625,-0.19603753588497638,0.22105185789316892,-0.4348172851052135
1772469473059978000,0.80697802734375,-0.233737444204092,0.22180969052314756,-0.44498763719219714
1772469473069985000,0.816985107421875,-0.24695582221746443,0.11477642599791288,-0.4775640284851193
1772469473079992000,0.826991943359375,-0.36585868049561976,-0.004998246678709984,-0.4602561892010271
1772469473089998800,0.836998779296875,-0.5279004232764244,-0.15180501092672347,-0.41420638568773865
1772469473100006100,0.847006103515625,-0.5542711283296347,-0.2509900461696088,-0.38919122342932966
1772469473110013000,0.857012939453125,-0.4774883329004049,-0.3162406631067395,-0.43390550402253864
1772469473120020200,0.867020263671875,-0.43825580818653104,-0.33280966672226786,-0.49407337433528153
1772469473130027000,0.877027099609375,-0.4147521830022335,-0.3144023417636752,-0.534497300790809
1772469473140034000,0.887033935546875,-0.4519996713787317,-0.4028444491960108,-0.5692718597151338
1772469473150041000,0.897041015625,-0.4228951574474573,-0.42676863787993785,-0.5776539766784757
1772469473160048000,0.907048095703125,-0.2924719572454691,-0.38849677489176393,-0.5042195783616975
1772469473170055200,0.91705517578125,-0.1499088219165802,-0.3952557476326823,-0.398548067176342
1772469473180062000,0.92706201171875,-0.0792108993589878,-0.3964629314653575,-0.2699983326960355
1772469473190069000,0.937069091796875,-0.11433131257891654,-0.3721259241968393,-0.20590221955627203
1772469473200076000,0.947075927734375,-0.08934943153560161,-0.24260434900969266,-0.1574341028548777
1772469473210083000,0.9570830078125,-0.008023731979727744,-0.18031813483610748,-0.06691054950598627
1772469473220090000,0.967090087890625,0.05011281516849994,-0.13944193456843496,0.0551345157880336
1772469473230097200,0.97709716796875,0.11344050121903419,-0.029573446617275474,0.14379362697191536
1772469473240104000,0.98710400390625,0.24092530988156793,0.06340791167989372,0.186628340896219
1772469473250111000,0.997111083984375,0.32521161280870436,0.09540843931362032,0.18632694679684936
1772469473260118000,1.007117919921875,0.38774376456737514,0.11281769314557313,0.2720058731261641
1772469473270125000,1.017125,0.4855442135840654,0.15869959274604917,0.4281692253928631
1772469473280132000,1.027132080078125,0.5806815808713436,0.20307678687199948,0.6250045605920255
1772469473290139000,1.037138916015625,0.5913999587625265,0.19792904872000217,0.7281791038624942
1772469473300146200,1.047146240234375,0.5771463924825191,0.1464355928480625,0.7205059388861059
1772469473310153000,1.057153076171875,0.565268323162198,0.15580226386934518,0.6512596764415503
1772469473320160300,1.06716015625,0.4863070146501064,0.16965689395964145,0.5765035280017182
1772469473330167000,1.0771669921875,0.3100257341146469,0.1554603185638785,0.5007461666300893
1772469473340174000,1.087174072265625,0.12255027486979961,0.11679989464953541,0.3817505885671824
1772469473350181000,1.09718115234375,0.018261632877588273,0.08965528261438012,0.2558780739394948
1772469473360188000,1.10718798828125,0.033307226318120955,0.027893092314898966,0.2381132846681401
1772469473370195200,1.1171953125,0.11066343772113323,-0.08573270234316586,0.16695698735117911
1772469473380202000,1.127201904296875,0.11059855579137802,-0.13154738192632795,0.12547317657917736
1772469473390208000,1.1372080078125,0.02027647983133793,-0.11836714396625757,0.10541676923930644
1772469473400215000,1.147215087890625,-0.05067337166070938,-0.15542802372947334,0.07474361775182187
1772469473410222000,1.15722216796875,-0.05534603964686394,-0.18385142352879047,0.07634381949007511
1772469473420228900,1.167228759765625,-0.05913841766715049,-0.18032602588161825,0.06048869976494461
1772469473430236200,1.177236083984375,-0.05307283401787281,-0.19690350506454704,0.042706301771663124
1772469473440243000,1.187242919921875,-0.017370821517705918,-0.19650719922333953,0.06906001915745437
1772469473450250200,1.197250244140625,-0.004044306954741478,-0.1844315615043044,0.09770451436154544
1772469473460257000,1.207257080078125,-0.02601297765672207,-0.14179405065253375,0.13621928272750228
1772469473470264000,1.21726416015625,-0.04324935913980007,-0.1317690618529916,0.15645758597292006
1772469473480271000,1.22727099609375,-0.041535540959239,-0.1385322723776102,0.17292703820411115
1772469473490278000,1.23727783203125,-0.04055763583779335,-0.08804360963404179,0.2146437078839168
1772469473500285200,1.24728515625,0.0024228432327508924,-0.07362199331074952,0.24640724842399359
1772469473510292000,1.2572919921875,0.08208733157813548,-0.06265285552889108,0.2555352518511936
1772469473520299000,1.267299072265625,0.15566051731109617,-0.04739508064240217,0.20622641000933944
1772469473530306000,1.27730615234375,0.11088730960488319,-0.00817950706332922,0.15129907069858162
1772469473540313000,1.28731298828125,0.045642976278066634,0.05130670112818479,0.16761753361914306
1772469473550320000,1.297320068359375,-0.0058019642770290375,0.05867810667902231,0.22810893679782746
1772469473560327200,1.3073271484375,0.002648468682169914,0.09181669843196869,0.2976037306433543
1772469473570334000,1.317333984375,0.04719312832951546,0.16516484323740005,0.3111739543017
1772469473580341000,1.327341064453125,0.08588497029542923,0.15472674359232186,0.30851741191092874
1772469473590348000,1.33734814453125,0.09453414069712161,0.029229893876612185,0.2764033043675124
1772469473600355000,1.34735498046875,0.17665946619808673,-0.05120265623182058,0.1973634507264942
1772469473610362000,1.357362060546875,0.30508067892789836,-0.016994097159802914,0.15056184246521442
1772469473620369000,1.367368896484375,0.35148411818444725,0.018662614893913267,0.16687727317847312
1772469473630376200,1.377376220703125,0.27259996656179425,0.02722235344648361,0.21641827980838715
1772469473640383000,1.387383056640625,0.15100070880651473,0.0354813554868102,0.16540270711388438
1772469473650390300,1.397390380859375,0.08211071245372295,-0.005135609322786331,0.08008830324802547
1772469473660397000,1.40739697265625,0.10076689760684966,-0.055366497913002966,0.03371767028253525
1772469473670403800,1.41740380859375,0.08502806120514869,-0.08155833926796913,-0.0028724866963922976
1772469473680411100,1.4274111328125,0.049797757869958874,-0.08438274903893471,0.0045270489703863855
1772469473690418000,1.43741796875,0.01743161179423332,-0.04321808721870184,-0.008647051509842275
1772469473700425200,1.44742529296875,0.055366497913002966,-0.05875701713413,-0.05254091909825802
1772469473710432000,1.457431884765625,0.12198738029003142,-0.050932314857840534,-0.04906553460527211
1772469473720439000,1.46743896484375,0.18818214620947837,-0.05713643019497394,0.014417561202682554
1772469473730446000,1.477446044921875,0.2313818209886551,-0.0787862442061305,0.05950893147997558
1772469473740453000,1.487453125,0.16395371388196944,-0.05403408026546239,0.06582176788859069
1772469473750460200,1.497460205078125,0.07854746701419353,-0.0339347105666995,0.045921281762793656
1772469473760467000,1.507467041015625,0.012514029136300087,0.01338964292705059,0.010041830336488783
1772469473770474000,1.517473876953125,-0.032121231403946876,0.06372720676213503,0.011672171484678983
1772469473780481000,1.52748095703125,-0.03712883043289184,0.05454670596271753,0.050047531379945574
1772469473790488000,1.537488037109375,-0.011728431716561316,0.04408405639827251,0.05871082163853571
1772469473800495000,1.5474951171875,0.026239772149920463,0.01113835686892271,0.02779854589924216
1772469473810502100,1.557502197265625,0.08054594735503197,-0.01683686077147722,-0.0191090800197795
1772469473820509000,1.567509033203125,0.1646615698903799,-0.034541444288194174,-0.06571565889930352
1772469473830516200,1.57751611328125,0.15964929468631744,-0.039898587407171726,-0.05577084093019366
1772469473840523000,1.58752294921875,0.09917232189178467,-0.021994974187016486,-0.0033144400439225137
1772469473850530000,1.597530029296875,0.022535656934976576,-0.030125965933501718,0.01726478559365496
1772469473860537000,1.607537109375,-0.012286650121212005,-0.01135492222905159,0.00758921301998198
1772469473870544000,1.6175439453125,0.045347208201885224,-0.007683540239930152,0.007069920119922608
1772469473880551200,1.62755126953125,0.11612462573647499,-0.05240910941213369,0.010883359194546938
1772469473890558000,1.637557861328125,0.13909224434792994,-0.10053542693853378,0.007019340710155666
1772469473900565200,1.647565185546875,0.1685603308945894,-0.09811112240105867,-0.0024531835720874367
1772469473910572000,1.657572021484375,0.17577099292576312,-0.0778559776186943,0.01180049230577424
1772469473920578600,1.66757861328125,0.12914426630735396,-0.07552870371490716,-0.005934066224098205
1772469473930585600,1.677585693359375,0.058495443588495254,-0.06748100633770227,-0.015470449522789568
1772469473940592600,1.687592529296875,0.008698270240426064,-0.06148819566369056,-0.012570271101873367
1772469473950599400,1.697599365234375,0.040081835019588466,-0.04060615115463734,0.03395010906523093
1772469473960606500,1.7076064453125,0.10751286473572254,-0.04014496338367462,0.09751750388946384
1772469473970613500,1.717613525390625,0.12237959447801113,-0.04956394911408424,0.11576815871531143
1772469473980620500,1.72762060546875,0.07239186699390411,-0.050616965298354626,0.0859354218410328
1772469473990627600,1.737627685546875,-0.010296937608718871,-0.04975801038146019,-0.004952818368095904
1772469474000634400,1.74763427734375,-0.058359834510087964,-0.056359308342635625,-0.03335223450362682
1772469474010641700,1.7576416015625,-0.08150105612277984,-0.05378215133100748,-0.02259993607653305
1772469474020648400,1.7676484375,-0.05227086998522281,-0.0875812528192997,0.0024657507927156983
1772469474030655700,1.77765576171875,-0.028765491235256194,-0.11543781251609325,0.030264607219211755
1772469474040662500,1.78766259765625,-0.0031236849784851074,-0.14652093304395675,0.03555308728246018
1772469474050669300,1.79766943359375,-0.05218728335499763,-0.1557552098572254,0.049651609131228173
1772469474060676600,1.807676513671875,-0.04536474385857582,-0.14459756376594304,0.07492936784857884
1772469474070683400,1.817683349609375,0.013046528577804565,-0.13888883073031902,0.035204785301443185
1772469474080690700,1.827690673828125,0.050097617599368094,-0.0861217016607523,-0.010088427690882236
1772469474090697500,1.837697509765625,0.03618833471238613,-0.057846332029998296,-0.02667135023390874
1772469474100704500,1.84770458984375,0.0511427427381277,-0.09408785823434591,0.030308702089264988
1772469474110711600,1.857711669921875,0.144151865825057,-0.1255079556316137,0.10403134276289493
1772469474120718600,1.867718505859375,0.24122049343585966,-0.06962737071663141,0.12006850452404469
1772469474130725600,1.8777255859375,0.2591045251727104,-0.010379062934219837,0.12326035936791449
1772469474140732400,1.887732421875,0.17921148876845835,0.04304448421746492,0.11715104617476463
1772469474150739500,1.897739501953125,0.05941080486774444,0.08372428513020276,0.1267613897588104
1772469474160745700,1.907745849609375,-0.01642915675342083,0.07343728439360857,0.1532358109148219
1772469474170753500,1.91775341796875,-0.057038815039396285,0.05933686284869909,0.195549094780907
1772469474180759600,1.927759521484375,-0.06412848103940487,0.08883826714307069,0.17444555300828068
1772469474190766600,1.9377666015625,0.0011994389176368714,0.07683832500874996,0.1438561342814937
1772469474200773400,1.9477734375,0.13220014674663544,0.049452305433154105,0.11956870177574455
1772469474210780700,1.95778076171875,0.3118997112929821,-0.0184346513569355,0.10374120070990174
1772469474220787500,1.967787353515625,0.5134218160688877,-0.07530249374359846,0.053097785796038806
1772469474230794500,1.97779443359375,0.8534206636428833,-0.10205196898132562,-0.04206128186639398
1772469474240801500,1.987801513671875,0.9882844766408204,-0.19839520492702722,-0.21115550044197587
1772469474250808600,1.99780859375,0.6949743150055409,-0.16015929003506899,-0.08551372583024203
1772469474260815600,2.007815673828125,0.4797498480916023,-0.09990209747105837,0.0047381344377994536
1772469474270822400,2.017822509765625,0.31252339614927765,-0.15596125382333992,-0.11789324284419417
1772469474280829400,2.027829345703125,0.10894728145301341,-0.28079204084575177,-0.24593747548777609
1772469474290836500,2.03783642578125,-0.033765491479635236,-0.3326932007357478,-0.32442057202886787
1772469474300843500,2.047843505859375,-0.05291852023899555,-0.3978898955285549,-0.3734018624167889
1772469474310850600,2.0578505859375,-0.001449029764533043,-0.46927930748164653,-0.3885575286356732
1772469474320857600,2.067857666015625,0.07114391275942325,-0.4955646723389625,-0.42170276932511475
1772469474330864400,2.077864501953125,0.10575813002288341,-0.5112620076864958,-0.4531809170525521
1772469474340871700,2.08787158203125,0.0951449660718441,-0.49711628569513555,-0.4636381963221356
1772469474350878500,2.09787841796875,0.059652796930074685,-0.5057264392606914,-0.3713912167141214
1772469474360885500,2.107885498046875,-0.009507248535752296,-0.5024493172861635,-0.266021611084789
1772469474370892500,2.117892578125,-0.16550035880208014,-0.5151411872074008,-0.17140410295315087
1772469474380899300,2.1278994140625,-0.3174327955007553,-0.5064040462613105,-0.1161922841452062
1772469474390906600,2.13790673828125,-0.38798400306403635,-0.5281149428099393,-0.08172101901639252
1772469474400913400,2.147913330078125,-0.32285891220271584,-0.5716724911160767,-0.043906873200461265
1772469474410920700,2.157920654296875,-0.1961889270544052,-0.5878817215085029,-0.024910605905391275
1772469474420927500,2.167927490234375,-0.11455869159400463,-0.6236144214078784,0.029717312067374584
1772469474430934500,2.1779345703125,-0.08232406294345855,-0.6518095654092728,0.03178443719763309
1772469474440941600,2.187941650390625,-0.03309738295972347,-0.6115786773078143,0.01742870745109394
1772469474450948400,2.1979482421875,0.049376902109384536,-0.5817746368050575,0.006420059642754495
1772469474460955600,2.20795556640625,0.07466507262289523,-0.6134069156482815,-0.03116338268984109
1772469474470962400,2.21796240234375,0.0636082565575838,-0.6479995056018233,-0.09559095627367496
1772469474480969500,2.227969482421875,0.1723001019448042,-0.6550112840600312,-0.058985930519178505
1772469474490976500,2.2379765625,0.2235036349594593,-0.7309345400504768,-0.005133417365700006
1772469474500983600,2.247983642578125,0.19431378083229064,-0.7762674274660647,0.11956923149870707
1772469474510990600,2.257990478515625,0.1526443843603134,-0.7300060270287096,0.18411741752121596
1772469474520997600,2.26799755859375,0.053231823971867556,-0.7090199376232922,0.11767899730531498
1772469474531004400,2.27800439453125,-0.014396774142980575,-0.676762074227631,0.047879631022643296
1772469474541011500,2.288011474609375,0.026642507731914518,-0.6509075020030141,0.010668035943433641
1772469474551018500,2.2980185546875,0.09739829795658587,-0.5740465267710387,0.0023939641981385647
1772469474561025500,2.308025634765625,0.1422574303805828,-0.44240883621275423,-0.009029164428915827
1772469474571032600,2.318032470703125,0.12483166380524635,-0.36261736048683524,-0.021681396459508687
1772469474581039400,2.328039306640625,0.0114677349537611,-0.3486326742760837,-0.07357388898585923
1772469474591046700,2.338046630859375,-0.17090718628168106,-0.24946108303666115,-0.12352410660432651
1772469474601053400,2.348053466796875,-0.32591888429522514,-0.2094132964171469,-0.1329366991265677
1772469474611060700,2.358060791015625,-0.4939794489741325,-0.26298852699920533,-0.030014386184653265
1772469474621067500,2.368067626953125,-0.37099136720895765,-0.16575857134684918,0.21258187998328357
1772469474631074300,2.37807421875,-0.262701088359952,-0.15383476318866013,0.46808732121810315
1772469474641081600,2.38808154296875,-0.27396891682744023,-0.36763767286688087,0.35564576790854335
1772469474651088400,2.39808837890625,-0.13933657449781894,-0.4046818937562406,0.05420673341862857
1772469474661095700,2.408095703125,-0.04203530717492103,-0.25521102486550806,-0.27906255017202347
1772469474671102500,2.4181025390625,0.005244914916157722,-0.19443506912440062,-0.5338331743262708
1772469474681109500,2.428109619140625,-0.002756605231761932,-0.3332844446271658,-0.9679422380968927
1772469474691116500,2.438116455078125,0.22171149084568023,-0.550164715924114,-1.3727026039168237
1772469474701123600,2.44812353515625,0.8569061676710844,-0.5140101373508572,-1.4132168390043078
1772469474711130600,2.458130615234375,1.678852081120014,-0.3390115901023149,-1.203276449973136
1772469474721137400,2.468137451171875,2.2923978207170963,-0.2676344531089067,-0.9903129137285053
1772469474731144400,2.47814453125,2.7053964380502697,-0.09625906479358673,-0.5773309552691877
1772469474741151500,2.4881513671875,3.0968431487888095,0.08585457515716552,-0.1512983035136014
1772469474751158500,2.498158447265625,3.551851938855648,0.23573300193548202,0.06159224056005477
1772469474761165600,2.50816552734375,4.024611489668488,0.5030087047345936,-0.09697868430502712
1772469474771172600,2.518172607421875,4.4868847177803515,0.6082822661109268,-0.4134962646570056
1772469474781179400,2.528179443359375,5.02169535883665,0.6598077245563269,-0.8334993539247662
1772469474791186700,2.538186767578125,5.639139859437942,0.6934006359480321,-1.1945616669893264
1772469474801193500,2.548193359375,6.470698235362768,0.8364996317192912,-1.0912283529605715
1772469474811200500,2.558200439453125,7.27812988576889,1.138433537054062,-0.9170608497086912
1772469474821207600,2.56820751953125,7.7647993039906025,1.4500062083497642,-0.7400237093046307
1772469474831214300,2.57821435546875,8.00801886228919,1.8631392657175658,-0.47627011621706183
1772469474841221600,2.5882216796875,7.996293353182077,2.355296321570128,-0.17785444813631474
1772469474851228400,2.598228515625,7.766214431485533,2.5757833851873873,-0.03246997177638113
1772469474861235700,2.608235595703125,7.620859619611501,2.5348256441161037,0.03356872679851949
1772469474871242500,2.618242431640625,7.396919346800446,2.395607143040001,-0.11629391788877547
1772469474881249500,2.62824951171875,6.664456720399857,2.162896119274199,-0.2002400290761143
1772469474891256600,2.638256591796875,5.956616494080424,1.915877753214538,0.045746948109194635
1772469474901263400,2.648263427734375,5.480496526923775,1.5242653305202722,0.26730317532792686
1772469474911270700,2.658270751953125,4.848629533216357,1.103330440295115,0.19258582452852277
1772469474921277700,2.668277587890625,4.2482665157973765,0.9818201759975403,0.16402995745595544
1772469474931285000,2.678284912109375,4.110768847164511,0.6050798898730426,0.24130755066480486
1772469474941291800,2.688291748046875,4.172654517713189,-0.05247179938480258,0.08097827435769141
1772469474951298800,2.698298828125,3.562859655082226,-0.558995015046373,0.05891273741880432
1772469474961305900,2.708305908203125,2.0293629703581333,-0.8539632460869848,0.34918544932063666
1772469474971312600,2.718312744140625,-0.6924164472162723,-1.0819581280510873,0.7207168051578104
1772469474981320000,2.72831982421875,-4.196464432367682,-1.3288761755414307,0.8701425197325646
1772469474991326700,2.73832666015625,-7.304747259059548,-1.4341247486069797,0.6811521258801222
1772469475001333800,2.748333740234375,-10.014845006668567,-0.958777957779914,0.20228275041747837
1772469475011340800,2.7583408203125,-13.543028485167026,-0.06326908773109316,-0.14026088626850394
1772469475021347800,2.768347900390625,-18.24669834330678,0.9260176978200674,0.10275798922567628
1772469475031355000,2.77835498046875,-23.684534709155557,1.9696341855823993,1.1603844529036431
1772469475041362000,2.78836181640625,-28.661292025113106,3.0682442462921142,2.3638027225002647
1772469475051368700,2.79836865234375,-31.460560340559482,3.82091262537539,3.027611499391496
1772469475061375700,2.808375732421875,-32.29752086778879,4.443888456618786,2.7176684751242397
1772469475071382800,2.8183828125,-31.866861506080625,4.91143816382885,1.7512315270237624
1772469475081389800,2.828389892578125,-29.988130995738505,5.023434311458468,0.6908350232437253
1772469475091396900,2.83839697265625,-27.66092957266569,5.242314378270507,0.19097418808080255
1772469475101405000,2.848405029296875,-25.54772862766981,5.190149891269207,0.39043117702044544
1772469475111411700,2.85841162109375,-23.569414292025566,5.046486101222038,0.23661990430522709
1772469475121418800,2.868418701171875,-21.407553068757057,5.229554265418648,-0.5286978207318112
1772469475131425800,2.87842578125,-18.666782534986734,5.686531725209951,-0.9504899488408118
1772469475141432800,2.888432861328125,-16.157043109071253,5.787080596151948,-0.6485805203601718
1772469475151440000,2.89843994140625,-13.172352759778498,5.656709418398141,-1.1555041335161775
1772469475161447000,2.908447021484375,-9.256441298803686,5.344596941137313,-2.3862727668531236
1772469475171453700,2.91845361328125,-5.083455357179045,4.4082443117856975,-3.529286763565242
1772469475181460700,2.928460693359375,-1.893784871610999,3.385882793498039,-4.4814217761993405
1772469475191467800,2.9384677734375,0.3410381274938583,3.1113065584272146,-4.266302523225546
1772469475201474800,2.948474853515625,3.3334289681613445,3.4726784488976,-2.634725403499603
1772469475211481900,2.95848193359375,7.378869895368814,3.816313314886391,-1.5593207156799733
1772469475221488600,2.968488525390625,11.579668557548523,4.055610439044237,-1.919148007056862
1772469475231496000,2.978495849609375,15.517046584922074,4.312016226652264,-3.1781288085952397
1772469475241502700,2.988502685546875,18.15262772846818,4.555943933220208,-4.280458474349976
1772469475251510000,2.998510009765625,18.748503371340036,4.993496269312501,-4.229793285995721
1772469475261516800,3.008516845703125,18.435295500057936,5.753466495841741,-3.4924960790455337
1772469475271523800,3.01852392578125,18.16112667674422,6.530210162517428,-2.612625215372443
1772469475281531000,3.02853076171875,17.904775249671935,7.1689739300012585,-2.023444101703167
1772469475291537700,3.03853759765625,18.02028378933668,7.586857981288433,-1.9118546351782977
1772469475301545000,3.048544921875,18.46471448676586,7.724908607628941,-2.120711466756463
1772469475311551700,3.0585517578125,19.136252981126308,7.710814615824818,-2.069315918301046
1772469475321558800,3.068558837890625,20.015245308399198,7.550389076068997,-1.7686451647698878
1772469475331565800,3.07856591796875,20.676860959160326,7.539687649312615,-1.3596860320858657
1772469475341572900,3.08857275390625,21.23014833714962,7.33786685385108,-0.785237865711376
1772469475351580000,3.098579833984375,21.48054114807844,7.140356322804093,-0.5101324191346764
1772469475361586700,3.108586669921875,21.178775877308844,6.917472281047702,-0.6670196286965161
1772469475371593700,3.11859375,20.333325754153726,6.681117347821593,-0.9732473587676882
1772469475381600800,3.128600830078125,19.064129994201657,6.644617462942004,-1.3247488664783538
1772469475391607800,3.13860791015625,17.74202214375138,6.6449021251022815,-1.313236561730504
1772469475401614800,3.14861474609375,16.79813035106659,6.686024409085512,-1.0191387568488717
1772469475411622000,3.158621826171875,16.178246056097745,6.807454740014672,-0.8694030995421111
1772469475421628700,3.168628662109375,15.567683716225623,6.900322408804297,-0.9103453507833182
1772469475431636000,3.178635986328125,14.723596698117255,6.8342655900508165,-0.9646715458631515
1772469475441642800,3.188642822265625,13.868469230556487,6.6771618881940835,-0.8812954896487295
1772469475451649800,3.19864990234375,13.20416828623414,6.405667252525687,-0.3781687114924192
1772469475461656800,3.20865673828125,12.986121747636794,5.782552305072546,0.15353826446011662
1772469475471663600,3.21866357421875,13.568368678128719,5.333910711950064,0.0624666122417897
1772469475481671000,3.2286708984375,14.11712718051672,4.847025605151057,-0.7296663467455655
1772469475491677700,3.238677734375,13.35842244387865,4.395637051407992,-1.6368907159641384
1772469475501685000,3.24868505859375,11.744458137732744,4.004125751000642,-2.290229244506359
1772469475511691800,3.25869189453125,10.175449410122633,4.222215836478769,-2.3887699904963373
1772469475521698800,3.26869873046875,8.052308670392632,5.039118787324428,-1.0999563607521354
1772469475531705900,3.278705810546875,5.64244533072412,5.206655620390176,0.9077264004565775
1772469475541712600,3.288712646484375,2.244855732819438,5.328641247114539,1.9413862884804605
1772469475551720000,3.298719970703125,-1.9885434687137602,6.7871718304425475,1.0565550259210168
1772469475561726700,3.308726806640625,-7.694898669290542,9.655878423774242,-1.838599575483799
1772469475571733800,3.318733642578125,-18.166655084776878,13.888203858596086,-4.958187055522203
1772469475581740800,3.32874072265625,-34.224565619444846,17.797239588582514,-5.201650359448791
1772469475591747800,3.338747802734375,-50.02454768698215,20.47532248777151,-2.084153129687905
1772469475601755000,3.3487548828125,-61.81582719712257,21.00468655385971,2.3676816097602247
1772469475611762000,3.358761962890625,-66.26943040754794,18.98763010736704,4.188319119834899
1772469475621768700,3.368768798828125,-64.15358742361069,16.144955196392534,2.8898969731375574
1772469475631775700,3.378775634765625,-58.42323409233093,12.83368311498165,0.9136381817836314
1772469475641782800,3.38878271484375,-50.404215697121614,9.739272161775826,-0.2624974190140143
1772469475651789800,3.398789794921875,-41.65690173206329,6.930402489769459,-1.185552723364532
1772469475661796900,3.408796875,-32.9055732706666,4.8389822916880245,-3.1282574009671804
1772469475671803600,3.4188037109375,-25.022722756791115,3.2975504300504923,-4.935647306933999
1772469475681811000,3.42881103515625,-18.98712391141057,2.735603944787383,-5.33637797884643
1772469475691817700,3.438817626953125,-13.742399549388885,3.148874072538316,-4.900450905868411
1772469475701825000,3.448824951171875,-8.380390870201587,4.030882240501046,-4.444728122313321
1772469475711831800,3.458831787109375,-3.321907457193732,5.074920168545842,-3.7354619548439976
1772469475721838600,3.468838623046875,0.7137777996748685,6.1013037819564335,-2.378102173748612
1772469475731846000,3.478845947265625,3.974926544523239,7.156817043739557,-1.101581916127354
1772469475741852700,3.488852783203125,6.956629986959696,8.131495604354143,-0.5922830252073705
1772469475751860000,3.49885986328125,9.931513227987288,8.974122486782074,-0.2732391595144756
1772469475761866800,3.50886669921875,13.171480653119087,9.58771557265222,-0.023441190939955413
1772469475771873800,3.518873779296875,16.204788026064634,10.382228704774379,0.0029652430137619376
1772469475781880800,3.528880859375,18.82357702476382,10.835988371562957,-0.39770058350153265
1772469475791888000,3.538887939453125,20.445154144001005,10.842773501658439,-1.0030747070807964
1772469475801895000,3.54889501953125,21.188137579894065,10.402968710464238,-1.1321342177141458
1772469475811901700,3.558901611328125,21.47048970966339,9.82803999403119,-0.4119926551610231
1772469475821908700,3.56890869140625,21.57538099372387,9.335165291428565,0.16550225849822162
1772469475831915800,3.578915771484375,21.85421663980484,8.74145237954855,-0.040705154549703
1772469475841923800,3.588923828125,22.19459308851957,8.053100697553157,-0.8336956071492284
1772469475851931000,3.598930908203125,22.365186971068383,7.420286778384447,-1.7756924529328941
1772469475861937700,3.608937744140625,22.17066510044336,6.603176030007004,-2.5649936956256627
1772469475871945000,3.618945068359375,21.23814459660053,5.925529866421222,-2.918136979193985
1772469475881951700,3.62895166015625,20.282044479727745,5.69598928938508,-2.434056408421695
1772469475891958800,3.638958740234375,20.227695634424684,5.764896821394562,-1.5253952113330362
1772469475901965800,3.6489658203125,20.283606322216986,5.865692360574006,-1.0276466190837323
1772469475911972900,3.658972900390625,20.17557732465267,5.825127710473537,-0.9955446038369089
1772469475921980200,3.668980224609375,20.27065799331665,5.531013831239939,-1.4273014784581959
1772469475931987200,3.6789873046875,20.29266407341957,5.305659015455841,-1.5693758073568342
1772469475941994200,3.688994140625,20.023271962988375,5.285269138377904,-1.0386240863025187
1772469475952001300,3.699001220703125,19.25786392931938,5.3353462977111334,-0.5517134797360748
1772469475962008300,3.70900830078125,18.406296200066805,5.05125579984188,-0.37191688455604016
1772469475972015000,3.71901513671875,17.889311138558387,4.278538904464245,-0.07850998454801737
1772469475982022400,3.7290224609375,17.61136279670596,3.2140532316744324,-0.25614472551904616
1772469475992029200,3.739029296875,16.28343778440952,2.480705931393802,-0.9472954636484384
1772469476002036200,3.7490361328125,14.370252046757935,1.9539367041043936,-0.8569144971080124
1772469476012043300,3.759043212890625,12.443294973385333,1.432827256142348,-0.37585268963500856
1772469476022050000,3.769050048828125,10.058376689881086,1.5922107394993303,-0.04873513360712677
1772469476032057300,3.779057373046875,6.579613952633738,2.7649750007003546,-0.15176983001548797
1772469476042064100,3.789064208984375,0.46574879526793955,4.366793526500463,-0.4305727794032544
1772469476052071400,3.799071533203125,-7.915243547958135,6.147873225429654,-0.9156340317759663
1772469476062078200,3.809078125,-16.094655918741225,8.453186641821265,-1.7779181661583483
1772469476072085200,3.819085205078125,-23.727338078093528,11.41409805611968,-2.0219016945667563
1772469476082092300,3.82909228515625,-32.28366769900322,14.331618656980991,-1.3987752028062939
1772469476092099000,3.83909912109375,-40.90353251123428,15.47042979517579,-0.12219813696388154
1772469476102106400,3.8491064453125,-48.59140756549835,14.794804323762655,0.5625904457224533
1772469476112113200,3.859113037109375,-53.67982025282382,13.009621865689754,0.3064522412757389
1772469476122120200,3.8691201171875,-55.01059890098571,10.907570091217755,-1.0480381766621023
1772469476132127200,3.879127197265625,-52.97361961040497,8.8789564779222,-2.4632056382775307
1772469476142134300,3.88913427734375,-48.17505963773727,6.590656155651807,-3.015758856773376
1772469476152141300,3.899141357421875,-41.105861256217956,4.565055752697587,-3.314277692967653
1772469476162148400,3.9091484375,-33.36129225482941,2.856262706822157,-3.9258036171749233
1772469476172155100,3.919155029296875,-26.55941677625179,1.6900054894275962,-4.607093397960067
1772469476182162200,3.929162109375,-21.44117009167671,1.6222294456660746,-4.791648585844039
1772469476192169200,3.939169189453125,-16.97209224874377,2.4721055685698983,-4.42924939815253
1772469476202176300,3.94917626953125,-12.515686840379237,3.714795306651294,-3.5883912789627908
1772469476212183300,3.959183349609375,-8.311352405288815,4.7128278548464175,-2.67683406817168
1772469476222190000,3.969190185546875,-4.488254837089777,5.45663400529921,-1.3411632640540598
1772469476232197400,3.979197265625,-1.335278882190585,6.061504271009564,-0.14981031171185896
1772469476242204200,3.9892041015625,1.5156220053374767,6.668855247619748,0.5305712499208748
1772469476252212200,3.999212158203125,4.1434266696631905,7.1827230538904665,0.8374084171272814
1772469476262219300,4.00921923828125,6.583655921500921,7.803513942310214,0.913988091199845
1772469476272226300,4.019226318359375,9.289508871147037,8.220736899340153,0.08604191442281008
1772469476282233300,4.0292333984375,12.000047348260878,8.449477265909314,-1.0627657901946455
1772469476292240100,4.039240234375,14.21986976211071,8.757923037356138,-1.9553978626981376
1772469476302247200,4.0492470703125,16.026287900435925,9.031047904574871,-1.9062581303454935
1772469476312254200,4.059254150390625,17.23567421159148,9.389813411939144,-1.2648203213468194
1772469476322261200,4.06926123046875,18.002537704765796,9.40535584898591,-0.5604834269732236
1772469476332268300,4.079268310546875,18.83922467575073,8.818646678388118,-0.3257499574691057
1772469476342275000,4.089275146484375,19.89401780656576,8.290120816689729,-0.793415911469981
1772469476352282400,4.099282470703125,21.016968527805805,7.920230688720941,-1.0779970424003897
1772469476362289200,4.1092890625,21.895479209041593,7.674377859309315,-1.3610985292322932
1772469476372296400,4.11929638671875,22.0318014041543,7.39706197014153,-1.430670516499877
1772469476382303200,4.12930322265625,21.296232043910024,7.086995319494605,-1.2381211149916052
1772469476392310000,4.13931005859375,20.186330189335344,6.916219650638103,-1.1688165464885532
1772469476402317300,4.1493173828125,19.20174515173435,6.816079945018887,-1.0191729513794183
1772469476412324000,4.159323974609375,18.61766048442125,6.89438541997075,-0.8537517222281545
1772469476422331400,4.169331298828125,18.2080158536911,6.8351903036803,-0.7308920891482382
1772469476432338200,4.179338134765625,17.980549160319566,6.691292704877257,-0.5522201871491969
1772469476442345200,4.18934521484375,18.035165716648102,6.693869277366995,-0.30933431778438386
1772469476452352300,4.199352294921875,18.066047177124023,6.59546209462881,-0.09411496543698013
1772469476462359300,4.209359375,17.86607054822445,6.351848568576574,0.2210700511369854
1772469476472366300,4.219366455078125,17.03699405224323,6.162615452009439,0.5871418629266322
1772469476482373000,4.229373046875,15.680539695554971,5.6201312075853345,0.8125394949391483
1772469476492380200,4.239380126953125,14.98323430725336,4.675656646576524,0.6341527665570378
1772469476502387200,4.24938720703125,15.008388622254133,3.8759383470267057,-0.025006723223626612
1772469476512394200,4.259394287109375,15.255754778838156,3.1758523880958553,-0.7372137664504349
1772469476522401300,4.2694013671875,14.706331090539694,2.9973060852378604,-0.9920520124807953
1772469476532408300,4.279408203125,12.655194679790734,3.278184343062341,-0.6170202838398516
1772469476542415000,4.2894150390625,9.716917706626653,4.072588169591128,-0.007827624885737896
1772469476552422400,4.29942236328125,5.556103264310956,4.402138980647921,1.2900769276782869
1772469476562429200,4.30942919921875,1.3278262280970812,3.665700436353683,2.855615056568384
1772469476572436200,4.319436279296875,-0.8612251999139785,3.0781399096235633,2.840545789991319
1772469476582443300,4.329443359375,-2.1707985629618167,3.79637819583863,0.854801304346323
1772469476592450000,4.339449951171875,-5.409052754434943,5.874935405215621,-2.6267230065688487
1772469476602458000,4.3494580078125,-12.852386646407842,7.847222151133417,-4.862224051065743
1772469476612465200,4.359465087890625,-23.460333155059814,9.860027369922399,-4.8957095565602184
1772469476622472200,4.36947216796875,-34.75661614813804,11.187635571354628,-3.953804846039414
1772469476632479200,4.379479248046875,-42.259225820422174,11.173744993168114,-3.007146803511679
1772469476642486300,4.389486328125,-45.97872565150261,9.877124635195731,-2.1548624504223466
1772469476652493300,4.399493408203125,-47.110724771594995,8.4667925578475,-1.915937374447286
1772469476662500000,4.4095,-46.687058629775045,6.814346253094077,-2.1890666255801916
1772469476672507400,4.41950732421875,-45.149733326673505,5.0430900290429586,-2.833296549515426
1772469476682514200,4.42951416015625,-42.510771308517455,3.5532030612036585,-3.3620921680659053
1772469476692521200,4.439521240234375,-38.789700282597536,2.3008627205930647,-3.830410813821852
1772469476702528300,4.4495283203125,-33.83789737515449,1.445329156449437,-4.2993896770522
1772469476712535000,4.45953515625,-27.608834643769264,0.9479296698987484,-4.535698433049023
1772469476722542300,4.469542236328125,-20.849227112078665,0.772859372588247,-4.6693867725268
1772469476732549000,4.479549072265625,-14.638740486347675,0.7141261016558855,-4.432855605950952
1772469476742556400,4.489556396484375,-9.496299271714687,0.9708755150698125,-3.633136137357354
1772469476752563200,4.499563232421875,-5.903537814843654,1.5262863149538635,-2.4106825470969078
1772469476762570200,4.5095703125,-3.7610651826560497,2.380305967403203,-1.1926766569603233
1772469476772577300,4.519577392578125,-1.6110095479935407,3.6174642287120222,-0.39904878324009474
1772469476782584000,4.529583984375,1.3306921389222144,4.694222815358638,-0.31919242558442057
1772469476792591400,4.53959130859375,4.999213477915525,5.367274052369594,-1.4164796401925384
1772469476802598100,4.54959814453125,8.747658248451351,5.694725553059578,-2.6285382392972707
1772469476812605200,4.559605224609375,11.852974626553058,6.1210927705317735,-2.8361548615559933
1772469476822612200,4.5696123046875,14.126617477917671,6.784204797330498,-2.2338357416331767
1772469476832619300,4.579619384765625,16.284183634340764,7.684394810932874,-1.3166039923369883
1772469476842626300,4.589626220703125,18.483342030346392,8.463979253992438,-0.5395339432511478
1772469476852633300,4.59963330078125,20.217284130525588,8.870934499508142,-0.1248678310971707
1772469476862640000,4.60964013671875,21.04405761026144,8.924061694061756,-0.06251980373375117
1772469476872647200,4.619647216796875,21.19631153399944,8.702100027847289,-0.19784268561080098
1772469476882655200,4.6296552734375,21.38354090952873,8.303255023550987,-0.33061427556984124
1772469476892662300,4.639662353515625,21.641406248295304,7.7628306342661375,-0.5192964071907102
1772469476902669300,4.64966943359375,22.21893491809368,7.216624738970398,-0.8122440191239119
1772469476912676400,4.65967626953125,22.7133515894413,6.9964259907752275,-1.3888814391709863
1772469476922683100,4.66968310546875,23.008759600138664,6.563948765990138,-1.9523539649575947
1772469476932690400,4.6796904296875,23.031420344758033,6.350647960615158,-2.321215918922424
1772469476942697200,4.689697265625,21.77828958442211,6.612101094740629,-2.230909040531516
1772469476952704300,4.699704345703125,19.711200402259827,6.808029909554124,-1.8098939977422355
1772469476962711300,4.709711181640625,18.263674028027058,6.947100526592135,-1.3829190236352382
1772469476972718300,4.71971826171875,17.510823862636087,7.014807450640201,-0.6804053991660476
1772469476982725400,4.729725341796875,17.32387038143873,7.009058677855133,-0.010391045632958411
1772469476992732200,4.739732177734375,17.09742660137415,6.876385652899741,0.09667436759620904
1772469477002739200,4.7497392578125,15.857433555030822,6.273387026280164,-0.33577523852959273
1772469477012746200,4.759746337890625,14.514433723199367,5.345041177773475,-0.824723415338248
1772469477022753300,4.769753173828125,14.14497263429761,4.729892679154872,-1.2064373982220888
1772469477032760300,4.77976025390625,14.446851302313803,4.405929312841594,-1.4199519924782216
1772469477042767400,4.789767333984375,13.413381530034542,4.090580045616626,-1.684628034172952
1772469477052774100,4.799774169921875,11.08939848448634,3.7515865756928917,-1.7828817799150942
1772469477062781400,4.809781494140625,8.852986170363426,3.6176106514453887,-1.6322906748227775
1772469477072788200,4.819788330078125,7.140098548650741,3.704787999638915,-1.1833250373777002
1772469477082795300,4.829795166015625,5.177421927121281,3.8796056373625993,-0.16109426933024076
1772469477092802300,4.83980224609375,2.3244962557673454,3.764622875137627,0.6868081058152019
1772469477102809000,4.84980908203125,-1.9552976171940564,4.615015423130989,0.5665278947692364
1772469477112816400,4.85981640625,-9.152631964761019,7.0757146315455435,-1.094583289411664
1772469477122823200,4.8698232421875,-19.77868462346792,9.648112465947866,-4.439067320072651
1772469477132830500,4.87983056640625,-33.074249921417234,11.696319252985715,-7.52686616166234
1772469477142838300,4.88983837890625,-46.50429500148296,11.98913783171177,-7.613778721439838
1772469477152845300,4.89984521484375,-55.97005183541774,10.031682744222879,-5.232754522764682
1772469477162852400,4.909852294921875,-59.81853460476398,7.725222495883703,-3.6746447903096673
1772469477172859100,4.919859130859375,-58.32545994679928,5.516939713180065,-3.931448929585516
1772469477182866400,4.929866455078125,-52.9275686378479,3.0147938111335035,-4.4130254085823895
1772469477192873200,4.939873291015625,-45.135433583164215,0.6907113968640566,-4.318979051402211
1772469477202880300,4.94988037109375,-36.388547488129134,-1.029770625500381,-4.382971338841319
1772469477212887300,4.95988720703125,-28.441205505120752,-1.8407620142146943,-4.286498923557996
1772469477222894000,4.96989404296875,-22.147751842367647,-1.324421534220129,-3.523082063706219
1772469477232901400,4.9799013671875,-17.567220872640608,-0.12494941756655462,-2.4951401149377226
1772469477242908200,4.989908203125,-14.380617957949637,1.3145444294586777,-1.8159069744214416
1772469477252915500,4.99991552734375,-11.63580954696536,2.870782815083861,-1.010524511630088
1772469477262922200,5.009922119140625,-8.572972128152847,4.457851223258674,-0.3189623431555927
1772469477272929300,5.01992919921875,-5.1335833699166775,5.681357537442445,0.19721909208605065
1772469477282936300,5.029936279296875,-1.7950579553991555,6.467518436282873,0.7932061411768198
1772469477292943400,5.039943359375,1.3853572105675935,7.034763612475991,1.278506316871941
1772469477302950400,5.049950439453125,3.8010084859877824,7.6417504319489,1.4071686448812484
1772469477312957200,5.059957275390625,5.900589486432075,8.251434819942713,1.4570323075942695
1772469477322964200,5.069964111328125,7.739120088332891,8.874487223553658,1.7156018491074443
1772469477332971300,5.07997119140625,9.339379694253205,9.409725150111317,1.4718718570686875
1772469477342978300,5.089978271484375,11.16886891156435,9.60129460067153,0.6862041485726833
1772469477352985300,5.0999853515625,13.136110064530373,9.767890353494883,-0.24566320685734971
1772469477362992400,5.109992431640625,14.893874938845634,9.934280354613065,-0.7089448265604674
1772469477372999200,5.119999267578125,16.212026745146513,9.998868854379653,-0.9877243585400283
1772469477383007200,5.13000732421875,17.491770787119865,9.864216053783894,-1.4877180993676185
1772469477393014300,5.14001416015625,18.829556683695316,9.60244961592555,-1.5701616970375178
1772469477403021300,5.150021240234375,20.060513021624086,9.605770869302749,-1.1041561505295336
1772469477413028400,5.1600283203125,20.84509804944992,9.401136769986152,-1.0438000276356936
1772469477423035400,5.170035400390625,20.92137815605402,8.971728869643806,-1.3780702684298156
1772469477433042200,5.180042236328125,20.552035140573977,8.573872876384854,-1.6283379916742442
1772469477443049200,5.19004931640625,20.430424192380904,8.158138112086057,-1.7530007286533713
1772469477453056300,5.20005615234375,20.720054788720606,7.792325024297833,-1.6493579833492635
1772469477463063300,5.210063232421875,20.62349878680706,7.722268906775117,-1.301999712923169
1772469477473070300,5.2200703125,20.039014306521416,7.752606761893629,-0.6856205034658313
1772469477483077400,5.230077392578125,19.577403341710568,7.699925557541847,-0.1849088966924697
1772469477493084200,5.240084228515625,18.84286273999214,7.765032528224587,0.07554594711065292
1772469477503091500,5.250091552734375,18.040552670383452,7.673582325017452,0.30231282164976
1772469477513098200,5.26009814453125,17.60511659579277,7.51399615869522,0.492458523017168
1772469477523105300,5.270105224609375,16.553443642824888,7.481032046726345,0.601284004721418
1772469477533112300,5.2801123046875,14.67550925129652,7.3105737732559435,0.9514568211115896
1772469477543119000,5.290119140625,12.903601285338402,6.763523243829607,1.26903413964957
1772469477553126400,5.30012646484375,11.71258883526325,5.84004237101078,1.2957573114022611
1772469477563133200,5.31013330078125,11.219200922441482,4.697443530970811,1.0008727400571107
1772469477573140500,5.320140380859375,11.101865167349576,3.4014263995885847,0.7363073191300034
1772469477583147300,5.330147216796875,10.69578962727785,2.4507696428135035,0.792959107613191
1772469477593154300,5.340154296875,8.869419418770073,1.9526774978235364,1.184515123945102
1772469477603161300,5.350161376953125,5.715619872528314,1.4422139470383524,1.5201643249422312
1772469477613168000,5.360168212890625,1.4353630582302808,0.9501699961714446,1.4655645736180245
1772469477623176400,5.370176513671875,-4.008190516221523,0.30381109738349915,0.7474190071877092
1772469477633183200,5.380183349609375,-8.919426435476542,0.20856369385048745,-2.1096792006105183
1772469477643190300,5.390190185546875,-15.472967789220808,2.0770523577719926,-6.284623875087499
1772469477653197300,5.400197265625,-26.276938389754292,4.764416295525431,-7.902379974731803
1772469477663204000,5.4102041015625,-39.07809636870623,6.842087661978602,-6.600937311169504
1772469477673211400,5.42021142578125,-49.063074644899366,7.575603012302517,-4.1381484369993204
1772469477683218200,5.43021826171875,-54.159347982597346,7.037353628969192,-2.3577996826931833
1772469477693225500,5.4402255859375,-53.25030421593189,5.41120379498899,-2.348124384114146
1772469477703232300,5.450232177734375,-48.02258827185631,3.0589439185053107,-2.73561885009557
1772469477713239300,5.4602392578125,-41.00653929672241,0.5727701501596719,-2.872051812106371
1772469477723246300,5.470246337890625,-33.46527168474197,-1.729022033303231,-2.48547475323081
1772469477733253000,5.480253173828125,-26.430384738147257,-3.268184634834528,-1.9536267613723872
1772469477743260400,5.490260498046875,-20.797153225970266,-3.831534849415719,-2.0951094079881907
1772469477753267200,5.50026708984375,-16.789049218988417,-3.807359316319227,-2.827773109918833
1772469477763274200,5.510274169921875,-13.885838883030413,-3.2565883050650357,-3.04087342428565
1772469477773281300,5.52028125,-11.367245119529962,-2.2000975765518844,-2.5620024048551917
1772469477783288300,5.530288330078125,-8.436807753950356,-0.9149654117994009,-1.4327015839360653
1772469477793295400,5.54029541015625,-5.000272047057748,0.16868191144764422,-0.43748230306338515
1772469477803302400,5.550302490234375,-1.7500386639773844,1.0317536160111427,0.10798649186315014
1772469477813310500,5.560310546875,0.7929056969255208,2.007469702979922,0.45461500497628
1772469477823317200,5.570317138671875,2.7720710964411497,3.1765111442655325,0.8546173260815441
1772469477833324300,5.58032421875,4.405103675672412,4.289802641278505,1.0864551472093908
1772469477843331300,5.590331298828125,5.895486025813222,5.261404278665781,1.2822959184132516
1772469477853338400,5.60033837890625,7.426134919890761,5.946616493591666,1.1431769321888685
1772469477863345400,5.610345458984375,8.995891835519672,6.298358970451354,0.49010209608413274
1772469477873352200,5.620352294921875,10.312560709786414,6.708834206786752,-0.3087211908547208
1772469477883359200,5.630359130859375,11.193967112463712,7.279751349490881,-1.0399863145664334
1772469477893366300,5.6403662109375,11.813528751349448,7.8083835941731925,-1.5226593566283584
1772469477903373300,5.650373291015625,12.55997840204835,8.451132631900906,-1.8206193898960947
1772469477913380400,5.66038037109375,13.52724405605793,8.925297373336553,-2.151536228609085
1772469477923387600,5.6703876953125,14.411567222964763,8.989390198540686,-2.1671511463701725
1772469477933394700,5.680394775390625,15.01568696256876,9.251952170690894,-1.5022621730268
1772469477943401500,5.6904013671875,15.883159532439707,9.195108001440763,-0.6643882572796196
1772469477953408800,5.70040869140625,16.637849772739408,9.03761383896172,-0.8461824560176581
1772469477963415600,5.71041552734375,17.184712086117266,8.637300515678524,-1.6970497088506817
1772469477973422600,5.720422607421875,18.17272709816694,7.978374250131845,-2.452888242402673
1772469477983429600,5.7304296875,18.763419200921057,7.68671594735682,-2.7141031838580965
1772469477993436700,5.740436767578125,18.60640025473833,7.400021988990902,-2.551654321581125
1772469478003443700,5.750443603515625,18.493739505720136,7.1107824377954,-2.3389262015275656
1772469478013451500,5.760451416015625,18.80056907414198,6.893797390949726,-2.021569540002942
1772469478023458800,5.770458740234375,19.104557866179942,6.760220695152879,-1.4005638397887348
1772469478033465600,5.780465576171875,19.160985271322726,6.689178489202261,-0.8313639493312687
1772469478043472600,5.79047265625,18.800896406400202,6.715751438829303,-0.39231677157133815
1772469478053479700,5.800479736328125,18.395240553045273,6.651277505353093,-0.019664704608544706
1772469478063486500,5.810486572265625,18.25945611807108,6.4634314592301845,0.28838826812840995
1772469478073493800,5.82049365234375,18.198581670391558,5.6949207833707325,0.25458127559460697
1772469478083500500,5.83050048828125,17.6723892200768,4.796957798168063,-0.20665055370554328
1772469478093507600,5.840507568359375,16.945651985585688,4.3894601163387295,-1.0745397415533662
1772469478103514600,5.8505146484375,16.162113251942394,3.9138521903574466,-1.450733938102424
1772469478113521700,5.860521728515625,15.15526494460702,3.4857518654823303,-1.2773942639768123
1772469478123528700,5.87052880859375,13.387150525712967,3.446467026059329,-1.4124432242833076
1772469478133535700,5.88053564453125,10.93322241886854,3.65699690541625,-0.9162013833351432
1772469478143542500,5.89054248046875,8.454844345900415,4.039718457907438,-0.35752661321908236
1772469478153549600,5.900549560546875,4.3408764104336495,4.994938869336247,-1.3301467799991369
1772469478163556600,5.910556640625,-3.648392158678174,6.529844836336374,-3.505252977026999
1772469478173563600,5.920563720703125,-15.576189678764342,8.989070465067028,-4.519067908504605
1772469478183570700,5.93057080078125,-29.79837648564577,11.551709706521034,-4.227553398114442
1772469478193578800,5.940578857421875,-42.64404229936599,12.465334955757855,-3.8908211511209605
1772469478203585500,5.95058544921875,-51.08567469699383,12.045277652084827,-3.2631200449213384
1772469478213592600,5.960592529296875,-55.057650575017924,10.312993255984782,-0.781396826243773
1772469478223599600,5.970599609375,-55.39553228430748,8.457221596425772,1.6346917446151374
1772469478233606700,5.980606689453125,-53.13098693163395,6.009018296968937,2.719394860525429
1772469478243613700,5.99061376953125,-49.25735569250583,3.6017987498074766,1.3112304826050996
1772469478253620700,6.000620849609375,-44.119370872759816,1.388110162537545,-0.8651751065835356
1772469478263627500,6.01062744140625,-37.19532564306259,-0.3336958019070327,-3.099073099797964
1772469478273634600,6.020634521484375,-29.090080916774273,-1.0600577002797276,-4.663825339007377
1772469478283641600,6.0306416015625,-21.989923917889595,-1.0085554765794427,-4.787316109597683
1772469478293648600,6.040648681640625,-17.065619258224963,-0.19673481570044532,-4.054660298712552
1772469478303655700,6.05065576171875,-13.896292472505568,0.969024991832301,-3.173727651026845
1772469478313662500,6.060662353515625,-11.785185284918546,2.2784002750247714,-2.706164792074263
1772469478323669800,6.070669677734375,-9.750496151101588,3.605581190955639,-2.46251648696959
1772469478333676500,6.080676513671875,-7.7157228461325165,4.941895845934749,-1.9996847481921314
1772469478343683800,6.090683837890625,-5.251947883534431,6.096460433578491,-1.7469421592667698
1772469478353690600,6.100690673828125,-1.8300217167526482,6.806264068925381,-1.8456261131197214
1772469478363698700,6.11069873046875,1.5686217741191386,7.372861594864726,-1.6519471230596303
1772469478373705700,6.120705810546875,4.708415591362119,7.970852622455358,-1.2003037908378988
1772469478383712500,6.13071240234375,8.10076495052576,8.623971663028001,-0.669039736347273
1772469478393719600,6.140719482421875,11.765779158180951,9.229548031181096,-0.5834986110534519
1772469478403726600,6.1507265625,14.781418772488832,9.549322421371937,-1.0946949330925941
1772469478413733600,6.160733642578125,16.479278336417675,9.848415258061886,-1.3851156568966805
1772469478423740700,6.17074072265625,17.29395688921213,10.163699351096152,-1.403556153472513
1772469478433747500,6.18074755859375,17.622004602229595,10.484325974202156,-1.2727294870361685
1772469478443754800,6.190754638671875,18.379878148740527,10.457153889638185,-1.0733020164519549
1772469478453761500,6.200761474609375,19.49367525718808,10.371480516266821,-0.7866067429117858
1772469478463768800,6.210768798828125,20.597153216195107,10.0909135163486,-0.7416905465383082
1772469478473775600,6.220775634765625,21.538118892300126,9.403924354878068,-1.0059623913463205
1772469478483782700,6.23078271484375,22.126910129868982,8.80853386517465,-1.702282348807156
1772469478493789700,6.240789794921875,22.547670028853414,8.444349255371094,-2.2583514664694664
1772469478503796500,6.25079638671875,22.5159889424324,8.35399503070712,-2.073563931134343
1772469478513803800,6.2608037109375,22.170711862194537,8.40002554499805,-1.6656646827667951
1772469478523810600,6.270810546875,21.46686801203489,8.686569865760207,-1.233942368002236
1772469478533818600,6.280818603515625,20.138376013505457,9.033838996598124,-0.7576739322856069
1772469478543825700,6.29082568359375,18.586523003357648,9.19751798519194,-0.4188296615742147
1772469478553832400,6.30083251953125,17.737854502677916,9.007015871602297,-0.24132987209446727
1772469478563839700,6.31083984375,17.229352022832632,8.713125279730559,-0.02774520827680826
1772469478573846500,6.320846435546875,16.44243007649183,8.499167471751571,-0.0008243950601667166
1772469478583853800,6.330853759765625,15.056017803913354,8.226015132004022,-0.2884648404959589
1772469478593860600,6.340860595703125,13.030159626805782,7.879543289023637,-0.3877938873194158
1772469478603867600,6.35086767578125,11.191045672059058,7.063866372841596,-0.20017361277639864
1772469478613874700,6.360874755859375,10.334347009658813,5.99414806009531,-0.3520703205745667
1772469478623881500,6.370881591796875,10.359778388035297,4.919775784063339,-0.5902142195766792
1772469478633888800,6.380888671875,10.226918900597095,3.8146968196004627,-0.46802258541882036
1772469478643895600,6.3908955078125,9.150703627046942,2.786395389869809,-0.12982510644467546
1772469478653902600,6.400902587890625,7.221886605021357,2.1432588141292332,0.17033731397185473
1772469478663909600,6.41090966796875,4.573644717344641,2.5920593972057104,0.1927216528026387
1772469478673916700,6.420916748046875,-0.5565104316890239,3.551426406919956,-0.7011095298249274
1772469478683923700,6.430923828125,-9.691360656043887,3.789259596005082,-0.7324361767850815
1772469478693930800,6.4409306640625,-21.174564981615543,3.5260429593384264,-0.2621544690615497
1772469478703938800,6.450938720703125,-30.51972559735775,3.8581861249759792,-0.8723232247725129
1772469478713945600,6.460945556640625,-37.54776896166801,5.7789323610097165,-2.5147455636397003
1772469478723952600,6.47095263671875,-45.42138169159889,6.398684554031491,-2.3658370048068464
1772469478733959700,6.480959716796875,-51.65968454501628,5.602966137772798,-0.6177252903040498
1772469478743966500,6.490966552734375,-53.059352605009074,4.111195548143983,1.120076042586565
1772469478753973800,6.500973876953125,-50.23873521206379,2.0872402820482847,1.2422948935449123
1772469478763980500,6.51098046875,-43.8957795595169,-0.07909432377461344,0.11170098234163596
1772469478773987600,6.520987548828125,-35.69157527730465,-1.9920533765308557,-1.4923790769159793
1772469478783994600,6.53099462890625,-27.609318627893924,-3.513665708324313,-2.971128272408247
1772469478794001700,6.541001708984375,-21.11381211448908,-4.218186434832215,-3.462885369157791
1772469478804008700,6.5510087890625,-16.573306865680216,-3.7556256219506263,-3.3625472183570264
1772469478814015700,6.561015625,-13.423537013345957,-2.5890578773021695,-2.960298250836134
1772469478824022500,6.5710224609375,-10.612793364161252,-1.2137677411101757,-2.5741376638069746
1772469478834029600,6.581029541015625,-7.607835302865505,-0.009211042068153619,-2.733654856546223
1772469478844036600,6.59103662109375,-4.70677191580832,1.0729347905747593,-2.732906376266479
1772469478854044700,6.601044677734375,-1.5844336757570505,2.1831176540479063,-2.027708335018903
1772469478864051500,6.611051513671875,1.627288482621312,3.2116607835799456,-0.9616953065313398
1772469478874058800,6.621058837890625,4.648158398798108,4.139215481708944,0.13885927584227173
1772469478884065500,6.6310654296875,7.249057520541548,5.041096809399128,0.9081789665296673
1772469478894072600,6.641072509765625,9.384399570196866,5.661518279984593,1.087686150309071
1772469478904079600,6.65107958984375,11.064667363333701,6.08909428872466,0.8825912285476922
1772469478914086700,6.661086669921875,12.273819865733385,6.610716946905851,0.6922367067351937
1772469478924092700,6.6710927734375,13.388976572096347,7.004202469995618,0.37921880506724115
1772469478934099700,6.681099609375,14.200716148829459,7.32889678093195,-0.06179032041542232
1772469478944106800,6.691106689453125,14.678738150215148,7.507892581123113,-0.6279996507547796
1772469478954113800,6.70111376953125,15.166775349658726,7.526279301685094,-0.9607954350821674
1772469478964120800,6.711120849609375,15.718399178349971,7.43422996354103,-1.1149380221109837
1772469478974127900,6.7211279296875,16.1599423376441,7.343505736520886,-1.005345647687465
1772469478984134700,6.731134765625,16.53976466156244,7.303141577428579,-0.9924658539786935
1772469478994141700,6.7411416015625,17.013119840180874,7.216761517092585,-0.954793418188393
1772469479004149800,6.751149658203125,17.336923924279212,7.0697180214792485,-1.10443562505804
1772469479014156800,6.76115673828125,17.46057602291107,6.885185629948973,-1.462770705115795
1772469479024163800,6.771163818359375,17.552177617287636,6.694276689124107,-1.724175616185367
1772469479034171000,6.7811708984375,17.40858280082345,6.675183281597494,-1.6427470407769083
1772469479044177700,6.791177734375,16.895878777635097,6.632965603592991,-1.3064476322427392
1772469479054184700,6.801184814453125,16.074688650989533,6.786902365851402,-0.9520731263790279
1772469479064191700,6.811191650390625,15.382421841377019,6.987846378478407,-0.5149318553056568
1772469479074198800,6.82119873046875,15.088450585484503,6.937519043776392,-0.041291795331239695
1772469479084205800,6.831205810546875,15.07972951889038,6.738045103701949,0.090962858081609
1772469479094212900,6.841212890625,14.832806429898739,6.566278085720539,0.11863792373165488
1772469479104219600,6.8512197265625,14.38089151419401,6.320389600473642,0.15067739513628184
1772469479114227000,6.86122705078125,13.859182346773148,5.876887708327174,0.044836336070299146
1772469479124233700,6.871233642578125,13.249670977258681,4.8888808795839545,0.04118322039023042
1772469479134240800,6.88124072265625,13.039123854506014,3.7545883878573774,-0.356768561393395
1772469479144247800,6.891247802734375,13.162031272250413,2.8643799623042345,-1.2392594713717697
1772469479154254600,6.901254638671875,12.795572287774085,2.0004320594280958,-1.5561147592455147
1772469479164262700,6.9112626953125,12.131095986884832,1.1451456019133328,-1.2206290782470255
1772469479174269700,6.921269775390625,11.539584384441374,0.7385721953220665,-0.8538230338986963
1772469479184276700,6.93127685546875,9.967715006703138,0.8684886150456964,-0.7550773399211466
1772469479194283800,6.94128369140625,6.88187197535634,1.626519105684012,-1.3546364936113358
1772469479204290800,6.951290771484375,2.3451883306622503,1.9078681958906352,-2.1035040191069245
1772469479214297900,6.9612978515625,-3.736038293427229,2.3511203510597345,-2.504375268533826
1772469479224304600,6.9713046875,-11.14167812229991,5.105534502518177,-4.395223209910094
1772469479234312000,6.98131201171875,-21.11226196243763,8.660251767677067,-7.150995205718279
1772469479244318700,6.991318603515625,-33.35628407127857,11.034338860565423,-8.079706964927912
1772469479254325800,7.00132568359375,-43.02603436853885,13.19611240555048,-6.1806713331818575
1772469479264332800,7.011332763671875,-50.73658887212276,14.377186814457177,-2.4825275938630105
1772469479274339600,7.021339599609375,-56.31912363176345,13.751859451651573,-0.051975248039513824
1772469479284347000,7.031346923828125,-57.253371982312196,11.87527764377594,0.5038719705004244
1772469479294353700,7.041353759765625,-54.00449644358158,9.28858766464889,0.07282514384463429
1772469479304361700,7.05136181640625,-47.55382509720325,6.968879227679968,-0.6219520411536097
1772469479314368800,7.06136865234375,-40.02218105361462,4.571593045511841,-1.827347821368277
1772469479324375800,7.071375732421875,-32.939410073816774,2.3009864931032062,-2.657445184829831
1772469479334382800,7.0813828125,-26.299935818982124,0.8616570154599845,-3.0339179060593247
1772469479344389600,7.0913896484375,-20.00558666869402,0.5484519937220961,-3.420219947385788
1772469479354397000,7.10139697265625,-14.389998365235328,1.0510216494522988,-3.529282964172959
1772469479364403700,7.11140380859375,-9.738442725214362,1.7520438663199542,-3.0436177545577285
1772469479374410800,7.12141064453125,-5.724461935153603,2.37824625839442,-2.7444319788873193
1772469479384417800,7.131417724609375,-2.2362159147679805,2.8331565565228463,-2.993118278159201
1772469479394424600,7.141424560546875,0.39363048451840876,3.4985210384234784,-2.9805747306674717
1772469479404432000,7.151431884765625,2.7234809607952832,4.485922302488983,-2.4390308358334005
1772469479414438700,7.161438720703125,5.267726467424631,5.630187906697392,-1.6568148752264678
1772469479424446000,7.171446044921875,8.303253269985317,6.712083563971519,-1.080503837589547
1772469479434452700,7.18145263671875,11.418099692976474,7.666444143700599,-0.8213631451249123
1772469479444460800,7.191460693359375,13.933040194666384,8.759958342576027,-0.7101626779176294
1772469479454467800,7.2014677734375,15.75967577611208,9.544788869595527,-0.5741711029987782
1772469479464474600,7.211474609375,17.00346120047569,10.047676432168483,-0.3932033816801384
1772469479474482000,7.22148193359375,18.019975161778927,10.577454339754581,-0.17493739164583383
1772469479484488700,7.23148876953125,19.122890810728073,10.615303301155567,-0.13966412595175207
1772469479494495700,7.241495849609375,20.412416242003438,10.369053581380843,-0.22959446264784783
1772469479504502800,7.251502685546875,21.750573894500732,10.429691882216929,-0.12886212489772586
1772469479514509600,7.261509521484375,22.60239998242855,10.319098002600668,-0.27548947745822366
1772469479524516900,7.271516845703125,22.833274438416957,10.28401499878168,-0.14962021423354743
1772469479534523600,7.281523681640625,22.513318846440313,10.237014762675761,-0.07520553617514669
1772469479544531000,7.291531005859375,21.988301285123825,10.289196200811862,0.3834178641922772
1772469479554537700,7.301537841796875,21.395245375847814,10.283086778020857,1.0429759248364716
1772469479564544800,7.311544677734375,20.602437294077873,10.130063623476028,1.4822943207532167
1772469479574551800,7.3215517578125,19.62117000272274,9.843760125732421,1.8555463263705372
1772469479584559600,7.3315595703125,18.849009572184084,9.39414939531684,2.2159341742396355
1772469479594567000,7.34156689453125,18.43300885042548,8.883460219082236,2.2803331427834928
1772469479604573700,7.35157373046875,17.957459376633167,8.22721340187788,1.8271365167051552
1772469479614581000,7.3615810546875,17.30140135999918,7.547295201706886,1.1231013817571103
1772469479624587800,7.371587890625,16.24264984694719,6.930451589608192,0.5638502730578184
1772469479634594600,7.381594482421875,14.794671052771806,6.380074546107649,0.05560659027919173
1772469479644601900,7.391601806640625,13.209003451305627,5.403161358308791,-0.5723245252840221
1772469479654608600,7.401608642578125,12.058904026377201,4.033692621746659,-1.1564063430529088
1772469479664616000,7.411615966796875,11.868663194072246,2.924512359444797,-2.030939425894618
1772469479674622700,7.421622802734375,12.23345044594407,2.074871214340627,-2.9507001091465352
1772469479684629800,7.431629638671875,12.028086863309145,1.3741039951473473,-2.925256163549423
1772469479694636800,7.44163671875,10.944709443044662,1.3228475629016756,-2.140247649614513
1772469479704643800,7.451643798828125,9.15839067441821,1.8753446672961114,-1.7366117577798663
1772469479714651000,7.46165087890625,6.781475080105662,2.7046201929807663,-1.9711134643547237
1772469479724658700,7.47165869140625,3.445331592288613,3.1555928593993183,-2.397575666633993
1772469479734666000,7.481666015625,-0.762476071870327,4.317179016242921,-3.4044033695727585
1772469479744672800,7.4916728515625,-6.6450371496587985,6.985287926167249,-5.130116570588946
1772469479754679600,7.501679443359375,-16.67520422862172,10.054012649452686,-5.510206021010875
1772469479764686800,7.511686767578125,-30.015306587433813,12.710525521868467,-3.3003546738162637
1772469479774693600,7.521693603515625,-42.74515523393154,13.12781569891572,-1.120113817313686
1772469479784701000,7.531700927734375,-52.40513232519626,11.629362270522117,-0.6065141604598612
1772469479794707700,7.541707763671875,-57.03060835206508,9.501021624061465,-0.5729061245642602
1772469479804714800,7.55171484375,-56.11497117848396,6.3287973633348935,-0.9980324751298874
1772469479814721800,7.5617216796875,-50.700465419340134,3.2189076859682797,-1.6218557900480925
1772469479824728800,7.571728759765625,-43.42188662075996,1.0616349595338106,-2.33187715979889
1772469479834735900,7.58173583984375,-37.395407485902304,-0.6275529299005865,-2.681376680037379
1772469479844742700,7.59174267578125,-32.10552880790233,-1.6720605212837456,-3.0971649280890823
1772469479854751000,7.6017509765625,-26.980672349798677,-1.6247912589780986,-3.6012300100088117
1772469479864757800,7.6117578125,-23.250068940901755,-0.772944639718905,-3.4554911672532556
1772469479874764800,7.621764892578125,-21.03506766359806,0.5818258920682594,-2.361016160521656
1772469479884771800,7.631771728515625,-18.843489347457886,2.583587336936593,-1.5986020479716359
1772469479894778600,7.641778564453125,-16.890565473657844,4.702139872093499,-0.5050524855218828
1772469479904786000,7.651785888671875,-14.315548981189727,6.3373039103955024,0.6854856981050222
1772469479914792700,7.661792724609375,-10.78600239764452,7.31089759838283,1.1934227991525084
1772469479924800000,7.671800048828125,-6.8865423052549355,7.793115297892689,1.0245930767320095
1772469479934806800,7.681806884765625,-3.1072610824286935,8.076695508152246,1.1671647606935351
1772469479944814000,7.69181396484375,0.738305507209897,8.627642460495233,1.4291621577635407
1772469479954820900,7.70182080078125,4.763156650853157,9.075629973623156,1.1948498362809419
1772469479964827600,7.71182763671875,8.71774650979042,9.275853855282067,0.639429391785711
1772469479974835000,7.7218349609375,12.240175954806803,9.625524786564707,0.1592499566378072
1772469479984842800,7.7318427734375,15.164417388355732,9.714437580248713,0.04707373973354697
1772469479994850000,7.74185009765625,17.538603849965334,9.886893165016174,-0.010216310120560228
1772469480004856800,7.75185693359375,19.105785362148282,10.190607231765984,-0.21083580350093542
1772469480014864000,7.76186376953125,20.442521457409857,10.503479587483405,-0.8000360602620988
1772469480024871000,7.771870849609375,21.037387046456335,11.080872648203373,-1.2258185366488992
1772469480034877700,7.781877685546875,21.052615010726452,11.394954964232443,-0.9633296297349035
1772469480044885000,7.791885009765625,21.73849533417225,11.58834753856659,-0.8790096437338739
1772469480054891800,7.801891845703125,22.46260105111599,11.77926641626358,-0.9176872379787265
1772469480064899000,7.811899169921875,23.93835983262062,11.60078265724778,-0.6372134693019091
1772469480074905900,7.82190576171875,25.765900253951546,11.425260086125135,-0.36357225005887445
1772469480084913000,7.831912841796875,26.523127319252488,11.354113250756264,0.22052608045339583
1772469480094920000,7.841919921875,23.663989933776854,11.661648921620845,-0.5609757770674303
1772469480104927700,7.851927734375,18.829259746575353,11.243567301934958,-5.270931985467672
1772469480114935000,7.86193505859375,18.03574556236267,9.224738000550866,-5.339881018531322
1772469480124941800,7.87194189453125,14.94386208180785,8.875311399418115,-3.4699209668830036
1772469480134948900,7.881948974609375,13.49906308671236,8.830930405899881,-3.0195822144538162
1772469480144956000,7.891955810546875,12.862226487898825,9.272582870787382,-2.135812005254626
1772469480154962700,7.901962646484375,15.28933673044443,8.872042753010987,-2.365388238126039
1772469480164970000,7.911969970703125,14.895656561565398,8.577897894117235,-3.026507337541878
1772469480174976800,7.921976806640625,14.39279121082425,8.338529750549792,-2.38697433925122
1772469480184984000,7.931984130859375,14.384439562064408,7.9924074516594406,-0.8076775149259716
1772469480194990800,7.941990966796875,14.387652094370125,7.60773184249103,0.8444478873100131
1772469480204998000,7.951997802734375,14.305767591887712,6.774565446847677,1.9202486617751418
1772469480215005000,7.9620048828125,13.145558276355265,5.681563289147615,2.1231277341179546
1772469480225011700,7.97201171875,11.169321331506968,4.616708198523521,1.7152216176182031
1772469480235020000,7.98202001953125,8.727223363187909,3.9091280844449994,1.0740942628081886
1772469480245026800,7.99202685546875,5.458531363353133,2.828574197168648,0.6754018187250942
1772469480255033900,8.002033935546875,2.754876800534129,1.3659439234368502,0.6834981775496155
1772469480265041000,8.012041015625,0.08363865267336368,0.6841879864446818,0.4226580607559532
1772469480275047700,8.022047607421875,-6.015605274143815,1.37023855189085,-0.01057661306662485
1772469480285055000,8.032054931640625,-15.684807874393462,2.533485335423052,-0.13750373304747043
1772469480295061800,8.042061767578126,-27.00683087340593,3.7213770231291647,-0.06125361972283572
1772469480305069000,8.052069091796875,-38.178016829741,4.754870760805905,0.5803199079521
1772469480315075800,8.062075927734375,-46.13816919448375,5.181740959364175,1.2813015005484223
1772469480325083000,8.072082763671874,-50.816551466631886,5.045889888894558,1.0527683469891547
1772469480335090000,8.08208984375,-52.30793802537918,4.250010144594311,0.7500881533317267
1772469480345096700,8.0920966796875,-50.39585001983642,3.389735961794853,0.6207417885810137
1772469480355105000,8.10210498046875,-45.94207846710682,2.4538363369077443,-0.07773370294589549
1772469480365111800,8.11211181640625,-39.50488853359222,1.7350119213677941,-0.6923319838032126
1772469480375118800,8.122118896484375,-31.893978645586966,1.3566396501272917,-0.6265894186306744
1772469480385126000,8.1321259765625,-24.17204233176708,1.198187017879635,-0.794872174692899
1772469480395132700,8.142132568359376,-18.30658144186139,1.3626041114896534,-0.8722387613594531
1772469480405140000,8.152139892578125,-15.205559546083212,1.711223195631802,-0.8189652171377092
1772469480415146800,8.162146728515625,-13.798010961973667,2.3076026963725687,-0.6265963598281145
1772469480425154000,8.172154052734374,-12.773466838949918,2.9869547870934006,-0.14550824887007474
1772469480435160800,8.182160888671875,-11.38610296473503,3.617787469317019,-0.23671602162346242
1772469480445167900,8.19216796875,-9.000440000343323,4.1386055331170555,-0.1695473326379433
1772469480455175000,8.2021748046875,-5.820064581865072,4.303886988471448,0.02022463091309182
1772469480465182000,8.212181884765625,-2.0411235507786274,4.348548552496731,0.037486982521065505
1772469480475190000,8.22218994140625,1.7557237238764762,4.675185229672492,0.14449379286421463
1772469480485196800,8.23219677734375,5.210913862356543,5.080286664015055,0.9103090373609215
1772469480495204000,8.2422041015625,8.333069731578231,5.771192706668376,1.919795072788745
1772469480505211000,8.2522109375,10.702433303076027,6.308710853117704,2.0047211349241434
1772469480515217700,8.2622177734375,12.23083997118473,6.552172403478622,1.698830162526667
1772469480525225000,8.272224853515626,13.683631718599795,7.193435002040863,1.464656372731924
1772469480535231700,8.282231689453125,14.80354175696969,7.938032887393236,1.2899131154187022
1772469480545239000,8.292239013671875,15.776785900866985,8.539968853217363,1.3286968734517692
1772469480555245800,8.302245849609376,16.604940021306277,8.975755056419969,1.1168917134620249
1772469480565252900,8.3122529296875,17.151431747806072,9.514167521360516,1.5516479890950023
1772469480575260000,8.322260009765625,17.680335210645197,9.270365194737911,0.8989078648373484
1772469480585267000,8.332266845703124,18.03231558791399,8.798547893211245,0.31192707422394306
1772469480595275000,8.34227490234375,18.92337244699001,8.57134072755873,0.36369280769862233
1772469480605281800,8.35228173828125,19.739921469831465,8.535922792696953,-0.02782877664072439
1772469480615289000,8.3622890625,20.162694462203977,8.552280637779832,-0.3705662736646831
1772469480625296000,8.3722958984375,20.099142904269694,8.687177184003591,-0.6493345535978674
1772469480635302700,8.382302734375,19.775404286623,8.663073839360475,-1.0846659257050604
1772469480645310000,8.39231005859375,19.45016461676359,8.573437992098928,-1.1784812506083397
1772469480655316700,8.402316650390626,18.883477658975124,8.29149853478372,-0.9304021234493702
1772469480665324000,8.412323974609375,18.162149590051172,7.854183222317695,-0.4141967045439407
1772469480675330800,8.422330810546875,17.541899384379384,7.300802905347943,-0.8279341940782964
1772469480685337900,8.432337890625,16.536584862482545,6.822274708005786,-0.2374826220817864
1772469480695345000,8.442344970703125,15.903907721436022,7.1312500562846655,0.7937027655873448
1772469480705352000,8.45235205078125,15.073676210200786,7.171573883366585,0.7288990156348795
1772469480715360000,8.462360107421874,13.763415449410676,7.244274962440133,0.6312120369300246
1772469480725366800,8.47236669921875,12.692270903253554,7.1701429737806315,0.2690697648753412
1772469480735374000,8.4823740234375,12.166652453434466,6.620252837014198,0.085001136665605
1772469480745380900,8.492380859375,11.841149748724698,5.400041180461645,-0.40997908684890716
1772469480755388000,8.502387939453126,11.472492961943148,4.356742088085412,-1.3803903819404542
1772469480765395000,8.51239501953125,11.255500900834798,3.650598144289851,-1.9043065578863023
1772469480775401700,8.522401611328124,11.19559091427326,2.6750258497059343,-1.363164667981863
1772469480785409000,8.532408935546876,10.74760164757967,2.226096233422309,-0.8212734940800815
1772469480795415800,8.542415771484375,8.285206741163135,2.81852714266777,-0.9149643158208578
1772469480805422800,8.5524228515625,2.700627323952317,4.207150369293988,-0.8823643609892576
1772469480815430000,8.562429931640626,-6.635967123496532,5.50223431147933,-1.6384994663350283
1772469480825437700,8.572437744140625,-17.5703726146698,6.838924229511618,-3.94369524769634
1772469480835445000,8.582445068359375,-27.1175206146121,8.911237868323921,-5.045178525754809
1772469480845451800,8.59245166015625,-37.06250356502533,10.402488233470915,-3.3904239440590143
1772469480855459000,8.602458984375,-47.82408463811874,10.147844779360295,-0.3764762648934498
1772469480865465900,8.6124658203125,-56.10919142603874,8.241828787207602,-0.008725030383188276
1772469480875473000,8.622472900390624,-57.88146179556846,7.036348251318931,-0.6551750963196158
1772469480885480000,8.63247998046875,-53.31764113762378,6.152809512788057,0.32684937007836995
1772469480895486700,8.64248681640625,-45.14404242155552,4.806629881876707,0.9007340573512017
1772469480905494000,8.652493896484375,-35.886356675648685,2.8495786990135907,-0.177687494071573
1772469480915500800,8.662500732421876,-28.182912296330926,0.7408056534625589,-1.0516612625300883
1772469480925507800,8.6725078125,-22.817981007695195,-0.1308577922269702,-1.0444828953333198
1772469480935515000,8.682514892578125,-19.9758952947855,0.19733477262128143,-1.1483407446928322
1772469480945522700,8.692522705078124,-19.08647042082548,1.1173792047180235,-1.461132436389476
1772469480955530000,8.702530029296875,-18.268585180944203,2.0544581025175748,-1.5229771904058753
1772469480965536800,8.712536865234375,-16.28006626214981,3.0457331392765044,-1.2913669674888253
1772469480975544000,8.7225439453125,-13.940905521214008,3.6911046344622966,-1.428666044809669
1772469480985550800,8.73255078125,-11.372366700327396,4.114932981106639,-1.6511021966680883
1772469480995558000,8.742557861328125,-8.043018279477954,4.810723873192072,-1.1691126068256794
1772469481005565000,8.75256494140625,-4.312002198126912,5.469492902350425,-0.8518241882316767
1772469481015571700,8.76257177734375,-0.2935907321423292,6.2194660510003565,-0.16993501678127795
1772469481025579000,8.7725791015625,4.103414977270364,6.92407679387927,0.7594367041744291
1772469481035585800,8.782585693359374,8.303858250141143,7.2846823761522765,1.4559446584880351
1772469481045592800,8.7925927734375,11.77253272409439,7.839383128070831,1.4734168945536017
1772469481055599900,8.802599853515625,14.493165309721231,8.628866449332238,0.941283363752067
1772469481065607700,8.812607666015625,16.353408561736344,9.286486308455467,0.5249036891458556
1772469481075615000,8.822614990234374,17.377163580209015,9.895265856564045,0.5183430519886315
1772469481085621800,8.832621826171875,18.045894031411407,10.354143597018718,0.7019602283701301
1772469481095629000,8.842629150390625,18.575113136070964,10.712115323656796,0.642589755512774
1772469481105635800,8.8526357421875,18.812879105138776,10.952418117725848,0.8745939461834729
1772469481115643000,8.862642822265625,19.167531916487217,10.945742877745628,1.448193898230791
1772469481125650000,8.87264990234375,19.699715716171262,10.518285526949168,1.2723863726869225
1772469481135657000,8.882656982421874,20.145130748462677,9.943479560112953,0.6405836763873696
1772469481145664000,8.8926640625,20.623578281784056,9.225051304283738,-0.23569880740493535
1772469481155670800,8.9026708984375,20.95130801489353,8.804831503525376,-1.1774947968542575
1772469481165677800,8.912677734375,19.777648850679398,8.868021242409943,-1.4213105674803257
1772469481175686000,8.922685791015626,17.870964165484903,9.011572804254293,-1.1244084457676857
1772469481185692700,8.932692626953125,15.9762387981534,8.908714487326145,-0.9194357621464878
1772469481195700000,8.942699951171875,14.130229823195933,8.708014804849029,-0.6068463515562936
1772469481205706800,8.952706787109374,12.473427076798677,8.420691316407918,-0.3144159684302285
1772469481215714000,8.962714111328125,11.672767697006464,7.973039318844676,-0.23482659114766866
1772469481225720800,8.972720947265625,11.679126126122474,7.633996164560317,-0.15718688662815838
1772469481235728000,8.982727783203124,11.693435221982002,7.200802900460362,-0.385634480795823
1772469481245735000,8.99273486328125,11.690500922095774,6.477289888712764,-0.8364101998701691
1772469481255742000,9.002741943359375,11.648711114114523,5.8180608408272265,-0.8809474799286574
1772469481265749000,9.0127490234375,11.022350316607952,5.362521889406442,-0.6463808183588087
1772469481275755800,9.022755859375,9.710883687159418,4.741695637412369,-0.435621514160186
1772469481285764000,9.03276416015625,8.486416126728058,3.7317622235432264,-0.2724684126039967
1772469481295771000,9.04277099609375,8.093678791657089,2.950169071009755,-0.49852987882010635
1772469481305777700,9.052777587890626,8.608324596562982,2.1282076677307487,-0.6353191799879073
1772469481315785000,9.062784912109375,9.30445860299766,1.2803183347299694,-0.8646998172219842
1772469481325791700,9.072791748046875,8.905620612964034,0.9533259759843349,-1.0699148582316935
1772469481335799000,9.082799072265624,7.637912461221218,1.2692179717838763,-0.7115940989602356
1772469481345805800,9.092805908203125,4.742580895814299,2.019359462738037,-0.6337721697416157
1772469481355812900,9.102812744140625,0.9377180724859238,2.1503382509961724,-0.29585964518869295
1772469481365820000,9.11281982421875,-2.7828403277367353,3.01453954411149,0.1751169311975129
1772469481375827000,9.122826904296875,-7.85436150149405,4.7287011312827465,0.23740942898141218
1772469481385834000,9.132833984375,-15.872619433724878,6.590245236763358,-0.5385533712485805
1772469481395841800,9.142841796875,-27.95197705006599,8.56311942718029,-0.715447048061341
1772469481405849000,9.15284912109375,-40.410523368597026,9.215976017424463,0.05347672037733719
1772469481415855900,9.16285595703125,-48.532183807635306,7.61325323626101,0.815581931374967
1772469481425863000,9.17286279296875,-50.49664965066909,4.347507226750254,1.1115026408348232
1772469481435870000,9.182869873046876,-47.646193584299084,0.748901573895663,1.057624554848671
1772469481445876700,9.192876708984375,-42.720455676960945,-2.4653169313430783,0.5350627891864628
1772469481455884000,9.202884033203125,-36.535865709030624,-5.0448371649712325,-0.06147953743319958
1772469481465890800,9.212890869140624,-29.88739449326992,-6.548907848724722,-0.9223287801742553
1772469481475897900,9.22289794921875,-24.086522103130815,-6.859414059832692,-1.9834208650030194
1772469481485905000,9.23290478515625,-20.20735661075115,-5.957604920595884,-2.4946733742088076
1772469481495912000,9.242911865234374,-17.78930411940813,-4.237926615829766,-2.536076520960033
1772469481505920000,9.252919921875,-15.647854400527477,-2.2416196735076603,-2.5777678370028734
1772469481515926800,9.2629267578125,-12.814784353244304,-0.29596352568827566,-2.198191304539144
1772469481525934000,9.27293408203125,-9.084483726686239,1.3747816021479666,-1.2714245419174433
1772469481535940900,9.28294091796875,-5.227694901287555,2.490327161698043,-0.6375158132493496
1772469481545948000,9.292947998046875,-2.1213217076092956,3.096706370666623,0.07904659390905872
1772469481555955000,9.302954833984375,0.30155016671419144,3.6300562915205954,0.44532340848520396
1772469481565961700,9.312961669921876,2.1232243263602255,4.058936660857499,0.6058899641469121
1772469481575969000,9.322968994140625,3.756784144335985,4.508943404853344,0.7805294688247144
1772469481585975800,9.332975830078125,5.115874694746733,5.024476513987779,0.8744995458982885
1772469481595982800,9.34298291015625,6.037386313319206,5.762455857983231,0.9236828251317143
1772469481605990000,9.352989990234375,6.773962220257521,6.527235530620813,0.9551331715367734
1772469481615997700,9.362997802734375,7.940905227959155,7.106238364624977,0.8087677213154733
1772469481626005000,9.3730048828125,9.867935951089859,7.467650587105751,0.9200520674139261
1772469481636011800,9.38301171875,12.191069101810454,7.6133713096827265,1.1539273126535117
1772469481646019000,9.39301904296875,13.810309302532673,7.708775218951701,1.3505362186856567
1772469481656025900,9.40302587890625,14.77972248996496,7.811085254347324,1.1759822733994572
1772469481666033000,9.413032958984376,16.126114886844157,7.9279919703722,0.7851392276424914
1772469481676040000,9.4230400390625,17.75771188031435,7.8326155336320396,0.7542119552634656
1772469481686046700,9.433046630859375,18.976934525829552,7.588296489658951,0.9010531332377344
1772469481696054000,9.443053955078126,19.49587189044952,7.189826748415827,0.7271735800817608
1772469481706060800,9.453060791015625,19.52748867946267,6.747394531327486,0.5285006176592781
1772469481716068900,9.46306884765625,19.689325255060194,6.50840457342267,0.3717781336724758
1772469481726076000,9.473075927734374,19.680571455240248,6.4588827098846435,0.14431513922852462
1772469481736082700,9.483082763671876,19.207722472578286,6.494194261762499,-0.21408439350072292
1772469481746090000,9.493090087890625,18.322294559299944,6.616483839869499,-0.6856159734211862
1772469481756096800,9.5030966796875,17.04624820280075,6.792160140249132,-0.8409781653728335
1772469481766104000,9.51310400390625,15.655988607144355,7.019268521702289,-0.6524355883531272
1772469481776110800,9.52311083984375,13.826264412033558,7.181854454362392,-0.6860612329706549
1772469481786118000,9.533117919921875,12.174610134440659,7.200323592510819,-0.6714691554512828
1772469481796125000,9.543125,10.953037710928916,7.24978057411909,-0.20781846497375517
1772469481806131700,9.553131591796875,9.977972196823359,7.083277175754309,0.13891441269614732
1772469481816139000,9.563138916015625,9.398419327721,6.477153110590577,0.2490120240949094
1772469481826146800,9.573146728515624,9.041427259770035,5.53406854263544,0.3028925212338567
1772469481836154000,9.583154052734375,8.850746867004036,4.369134828929603,0.25643095858190207
1772469481846161000,9.593160888671875,8.783478918895124,3.360811480605602,0.2920858074720949
1772469481856167700,9.603167724609374,8.297113452056049,2.6552587807014585,0.4175715512719005
1772469481866175000,9.613175048828126,6.872135594239831,1.975231567198038,0.7674787755284458
1772469481876181800,9.623181640625,4.768991932877898,1.5312388227947056,1.1974192483775317
1772469481886189000,9.63318896484375,1.6997879016429185,1.5191488642893731,1.407279704040289
1772469481896195800,9.64319580078125,-3.2442063778758046,2.24660038452968,0.9227572347193956
1772469481906203000,9.653202880859375,-10.96752216335535,2.631077986907959,0.6971317122351378
1772469481916210000,9.6632099609375,-19.31745476692915,2.7391592991814018,0.2550631408274174
1772469481926218500,9.673218505859374,-25.855051532566545,2.078939340562373,-0.8138350146424025
1772469481936225500,9.6832255859375,-28.45816131609678,1.0722400132436305,-0.4662653664879501
1772469481946232600,9.693232666015625,-28.27310168582201,-0.10541423022234812,0.7166622690699994
1772469481956239400,9.7032392578125,-28.103185848665238,-1.3785415392033755,0.7191106120701879
1772469481966246700,9.71324658203125,-28.453075975656507,-2.509249888832867,-0.6907482217431068
1772469481976253400,9.72325341796875,-29.02020249390602,-3.383163013145327,-1.5320590531364082
1772469481986260700,9.7332607421875,-28.03354357264042,-4.048551752704381,-1.8588389381751418
1772469481996267500,9.743267578125,-25.104448269319533,-4.818651743581891,-2.009586549003422
1772469482006274600,9.753274658203125,-21.258224092555047,-5.607969645148516,-1.5731414435006676
1772469482016281600,9.763281494140625,-17.517286336648464,-6.027827042335272,-1.3985054459542035
1772469482026288400,9.773288330078126,-14.770822559672593,-5.852562245365977,-1.0789482056453823
1772469482036296700,9.783296630859375,-13.356162682253121,-5.071857858365774,-0.985952599627152
1772469482046303500,9.793303466796875,-13.20310562543869,-3.8291698738500473,-0.9397530123796314
1772469482056310500,9.803310546875,-13.366161513698101,-2.5479110433995724,-0.8278500229261815
1772469482066317600,9.813317626953125,-13.001184876734017,-1.2764010151557623,-0.7847717825695872
1772469482076324400,9.823324462890625,-12.077272042238711,-0.23444909960478544,-0.7985930949121713
1772469482086331600,9.83333154296875,-10.78756891630888,0.37430531406253575,-0.8663871127218008
1772469482096338400,9.84333837890625,-9.516167755267023,0.7727154340729117,-0.9822880857702344
1772469482106345700,9.853345703125,-8.2513278524369,1.0701710249498486,-1.1031938083034007
1772469482116352500,9.8633525390625,-6.42405046595633,1.5167232445776462,-1.0557726433716714
1772469482126359600,9.873359619140626,-4.168010491299629,2.098374255003035,-0.9929137438766658
1772469482136367600,9.88336767578125,-1.6600778225451707,2.6130849418386815,-1.0095566164460033
1772469482146374400,9.89337451171875,0.9142828363627195,3.16884134029001,-0.7843564797669649
1772469482156381700,9.903381591796874,3.3408944817364215,3.7696833733975885,-0.45923495639450845
1772469482166388500,9.913388427734375,5.282416087034345,4.270675916004181,-0.007266155078075826
1772469482176395800,9.923395751953125,7.190671967068314,4.745057222799956,0.4634200600594282
1772469482186402600,9.933402587890624,9.185176390013098,5.312120320424437,0.5898354859247803
1772469482196409300,9.943409423828125,10.785082360190152,5.9845204000502825,0.5821704311896115
1772469482206416600,9.953416748046875,12.250713715434074,6.664646105492115,0.8323540563471615
1772469482216423400,9.96342333984375,14.084679201376437,7.147670445209741,0.9996706707909703
1772469482226430700,9.9734306640625,15.70765800410509,7.524699339017271,1.1383365064203739
1772469482236438500,9.9834384765625,16.440860050696134,7.739447420591116,1.1642765649713576
1772469482246445600,9.993445556640625,16.667143671762943,7.828142187610268,1.0927497903741896
1772469482256452600,10.00345263671875,16.983671627378463,7.8717492741465565,1.138827650938183
1772469482266459400,10.01345947265625,17.248735937738417,7.7534823756843805,1.0384682381536812
1772469482276466700,10.023466796875,17.27221267491579,7.470083951732516,0.7491003113381565
1772469482286473500,10.033473388671876,17.240889315891266,7.321896546781063,0.2274462716380134
1772469482296480800,10.043480712890625,16.5296559400022,7.342588621675968,0.0226114255849272
1772469482306487600,10.053487548828125,15.036928488039969,7.526799526166916,0.0817046889360994
1772469482316494600,10.06349462890625,12.813622323727607,7.721914686509966,-0.0967793258080259
1772469482326501600,10.073501708984375,10.57141272150278,7.838102440610528,-0.06200798175409436
1772469482336509400,10.083509521484375,9.242162013560533,7.776593202158808,0.24726470550354568
1772469482346516700,10.093516845703125,8.743172042948007,7.5853534219443794,0.6312539763756096
1772469482356523500,10.1035234375,8.545130766025185,7.217589784610271,0.8575038413032889
1772469482366530600,10.113530517578125,8.410517712917924,6.772081228816509,0.8733698112159967
1772469482376537600,10.12353759765625,7.896760381284356,6.3959565903723234,0.8133325450129807
1772469482386544400,10.13354443359375,7.270568510603904,5.876796522912382,1.1114506914518774
1772469482396551700,10.1435517578125,6.9194958958297965,5.084823722922802,1.4250808797992764
1772469482406558500,10.153558349609375,6.885909852570295,3.7926112445205447,1.2502480445064603
1772469482416565800,10.163565673828124,7.2433140084534875,2.7038658674821257,0.8319526359394193
1772469482426572500,10.173572509765625,7.631533573839068,1.6014944084122775,0.7547318144191056
1772469482436580600,10.18358056640625,7.298022334718704,0.671937430550158,0.39646939773876216
1772469482446587600,10.193587646484374,5.96660129700005,0.11189239499419927,0.13425503344982861
1772469482456594400,10.203594482421876,3.6792397168844935,-0.49696489452570675,-0.19743050634702666
1772469482466601700,10.213601806640625,0.6687678606033325,-0.3694619656845927,-0.8084871508084237
1772469482476608500,10.2236083984375,-3.8495956990242,0.4686059382647276,-1.3323144794270396
1772469482486615600,10.233615478515626,-10.421721341729164,0.7334332249984145,-0.8011085848644375
1772469482496622600,10.24362255859375,-16.172170535576342,0.10429039555788039,-0.28074429271388796
1772469482506629400,10.25362939453125,-18.992925875687597,-0.5201460097573697,-0.48331667372770604
1772469482516636700,10.26363671875,-19.804882894563672,-1.0732955867111682,-0.3208073134351522
1772469482526643500,10.2736435546875,-20.594805776286123,-1.6632025304369626,-0.03757756971423514
1772469482536651500,10.283651611328125,-22.77338198751211,-2.2423349821701644,-0.5693145663456991
1772469482546658600,10.293658447265624,-25.679105767595768,-3.0494349164038894,-1.3199619244627654
1772469482556665300,10.303665283203125,-27.662837452113628,-4.095462556961179,-1.5720159466020762
1772469482566672600,10.313672607421875,-28.084373596167563,-5.146043623039126,-1.2410073379524051
1772469482576679400,10.323679443359374,-26.163185753846168,-6.183677529260516,-0.5253438706614076
1772469482586686700,10.333686767578126,-22.596276531112192,-7.052909510019421,0.14796210829559714
1772469482596693500,10.343693603515625,-19.500309580636024,-7.384057527139783,-0.006387472547404468
1772469482606700500,10.353700439453124,-17.65990733964443,-6.901544059553742,-0.9501198003541678
1772469482616707600,10.36370751953125,-17.25454842340946,-5.583319772538543,-1.5201463508941233
1772469482626714400,10.37371435546875,-16.99988626459837,-3.7924306272566315,-1.5825950621530414
1772469482636722700,10.38372265625,-15.288527752149104,-1.943830466762185,-1.5593547640800476
1772469482646729500,10.3937294921875,-12.106159114027022,-0.32310996435433625,-1.0860544574540107
1772469482656736500,10.403736572265625,-8.413303544244169,0.6912155469939112,-0.2713981530239805
1772469482666743600,10.41374365234375,-4.3560172809422015,1.695288544397056,1.2672979635067283
1772469482676750300,10.423750244140624,-0.49281098971664905,2.0799325893834233,1.7117917892999945
1772469482686757600,10.433757568359376,2.5749779140233993,2.0169524015963076,0.21510102319736032
1772469482696764400,10.443764404296875,4.9862698251903055,2.443390930739045,0.7031875782079994
1772469482706771700,10.453771728515624,5.927295707049965,2.929642708070576,0.7297549748770892
1772469482716778500,10.463778564453126,7.326298581132292,3.4674610065102573,0.36527857905272393
1772469482726785500,10.47378564453125,7.961744602370262,4.544667044663429,1.1368170417681336
1772469482736793600,10.483793701171875,8.12374250600934,5.632759218490124,2.23899531635344
1772469482746800400,10.49380029296875,9.155227826473116,6.284187237235903,2.2719845627635715
1772469482756807700,10.5038076171875,10.347339762222767,7.3014394496858115,2.3311051525130866
1772469482766814500,10.513814453125,10.33976202044487,7.957378808376193,2.519967389941215
1772469482776821500,10.523821533203124,10.633659626579284,7.981209765818715,2.2869100369557738
1772469482786828500,10.53382861328125,11.47657526282072,7.817941111591458,1.6523339304201303
1772469482796835300,10.54383544921875,12.824158915311097,7.104008998137712,0.9508147968810051
1772469482806842600,10.553842529296874,14.60146669448614,6.387524277591705,1.01975023981072
1772469482816849400,10.563849365234375,15.855679989361763,5.835867715674638,1.0012902348168193
1772469482826856700,10.573856689453125,15.98733419266343,5.506190940150618,0.6803611216329037
1772469482836864500,10.583864501953125,14.990298838812112,5.73110736451745,0.38035646732766176
1772469482846871600,10.59387158203125,13.271744861900805,5.978085983088612,0.03259484026506543
1772469482856878600,10.603878662109375,10.877447340154648,6.43759033100903,0.0695962814586237
1772469482866885400,10.613885498046875,8.259082704347371,6.720974726435542,0.25017003502361473
1772469482876892700,10.623892578125,6.211918119838834,7.167925297731161,0.9909750308990478
1772469482886899500,10.6338994140625,5.024570037490129,7.490220146310329,1.9318822548151016
1772469482896906500,10.643906494140625,4.8320109913706775,7.407160170307755,2.2904934484004973
1772469482906913500,10.65391357421875,5.427341275319456,6.9179194402933115,2.045815946378559
1772469482916920300,10.66392041015625,6.302194018569589,6.187239021134376,1.339281103569269
1772469482926927400,10.67392724609375,6.4688002927869555,5.420352147084475,0.6694174836184829
1772469482936935200,10.68393505859375,6.390598278209566,4.514101810529827,0.3375631448596716
1772469482946942200,10.693942138671876,6.544721502950787,3.400850061005354,0.1253044689487666
1772469482956949200,10.70394921875,7.0935057243019335,2.0915736350774763,0.03223667447715998
1772469482966956300,10.713956298828125,7.973729639196395,1.124842818596959,-0.3090186759639531
1772469482976963300,10.72396337890625,7.85840873105824,0.4582528865545988,-0.42252004052475095
1772469482986970000,10.73397021484375,6.794475431454181,-0.08411036183834075,-0.363234542537108
1772469482996977400,10.743977294921875,5.049983880209923,-0.3220616243451834,-0.0699277419026941
1772469483006984200,10.753984130859376,2.5664333730399607,-0.05542202749252319,-0.06893887699581683
1772469483016991500,10.763991455078125,-0.6823965729832648,0.2608382170975208,-0.5345154575020075
1772469483026999300,10.773999267578125,-3.9191339301526544,0.15620909110456704,-0.921458427080512
1772469483037006300,10.78400634765625,-5.567153650635481,-0.12124006905406713,-1.2736363727480173
1772469483047013400,10.794013427734376,-5.88006458479762,-0.9056418492674827,-1.3023249993547796
1772469483057020200,10.804020263671875,-5.911835103067755,-2.046635299937427,-0.8085567819785326
1772469483067027500,10.81402734375,-6.134518069294095,-3.3272406349152326,-0.1714233921755105
1772469483077034200,10.8240341796875,-6.685078652667999,-4.695725621137023,-0.4210379852734506
1772469483087041300,10.834041259765625,-8.045495483246444,-5.797431894296407,-1.655148987840861
1772469483097048300,10.84404833984375,-11.21131338406205,-6.599038784071802,-3.115792179408669
1772469483107055000,10.85405517578125,-16.221911010301113,-7.088971588003635,-4.296443394467234
1772469483117062400,10.8640625,-21.266991920900345,-7.557545962086319,-4.605917632178962
1772469483127070200,10.8740703125,-23.916222819614408,-8.322242632615566,-4.301798199498653
1772469483137077200,10.8840771484375,-23.4062368232131,-9.213716840320824,-3.8122760221943257
1772469483147084300,10.894084228515625,-20.960162352478502,-9.675213238841295,-2.8337627057224513
1772469483157091300,10.90409130859375,-18.41178602965474,-9.365317268586159,-2.0420954645507035
1772469483167098400,10.914098388671874,-16.26173565568924,-8.536881408596038,-1.4976342209652065
1772469483177105200,10.924105224609375,-14.79856163046956,-7.516994755989312,-1.2015142626062034
1772469483187112400,10.934112548828125,-13.130437864112853,-6.462389256700873,-1.2269364347629248
1772469483197119200,10.944119140625,-10.946495741939543,-5.4125692381232975,-1.1277722231123595
1772469483207126300,10.954126220703126,-8.8575840195477,-4.425347714538872,-1.1454865973707289
1772469483217134300,10.96413427734375,-7.007019865503906,-3.428157170125842,-1.2595898733474313
1772469483227141400,10.974141357421875,-5.076960149940848,-2.4822289031773805,-1.297984339801967
1772469483237148200,10.984148193359376,-3.1237966221660374,-1.5990940692722797,-1.3295549515858291
1772469483247155200,10.9941552734375,-1.073810550495982,-0.7799360329762101,-1.1501104577790946
1772469483257162200,11.004162353515625,0.2693652224242687,-0.01585924791097641,-1.1546294695734978
1772469483267169300,11.014169189453124,1.194840483930707,0.8168649569228291,-1.077323673183471
1772469483277176300,11.02417626953125,2.1517606850147244,1.4105799146294593,-1.0888211456883699
1772469483287183400,11.034183349609375,3.2539573720395563,1.9793144525974988,-1.2037892218008637
1772469483297190100,11.044190185546874,4.333478701397777,2.4675252550423146,-1.0251499068971723
1772469483307197400,11.054197509765626,5.1566439275085925,3.058527738919854,-0.7239739803228527
1772469483317205200,11.064205322265625,5.271539303711056,3.774878603953123,-0.3892141293808818
1772469483327212300,11.07421240234375,5.678031023368239,4.558025123408436,0.37226599025465545
1772469483337219300,11.08421923828125,6.770452750831842,5.116546894919872,0.9716885850183665
1772469483347226400,11.094226318359375,7.886150724464654,5.634511615115404,1.2660861034989357
1772469483357233400,11.1042333984375,8.968438595926761,6.059988605749607,1.5552556581981478
1772469483367240200,11.114240234375,10.006480498427152,6.361263462653755,1.583587872582674
1772469483377247200,11.124247314453125,10.723250465655326,6.375909243121743,1.4855921932548284
1772469483387254300,11.134254150390625,11.274232489311695,6.248863410398363,1.2908936508886515
1772469483397261300,11.14426123046875,11.540159553980827,6.098939975434542,1.1519222564414142
1772469483407269000,11.15426904296875,11.659886003601551,6.117727678012847,1.214374328701198
1772469483417276400,11.1642763671875,11.44971882007718,6.18057371802628,1.562920493737608
1772469483427283200,11.174283203125,10.888197866749763,5.969494680353999,1.467062264829874
1772469483437290200,11.184290283203126,10.052043979728222,5.702976079532504,1.170760812424123
1772469483447297300,11.19429736328125,8.99524009361267,5.448517918860912,0.9428393610224127
1772469483457304300,11.20430419921875,8.213154481387138,5.196960740327834,0.91196447641775
1772469483467311400,11.214311279296876,7.265570263925194,4.823173020398617,0.7397634509332478
1772469483477318400,11.224318359375,5.767821768930554,4.393117469802498,0.42089134334437545
1772469483487325200,11.2343251953125,4.1850078033298255,4.021992247080803,0.10613397759795189
1772469483497333200,11.244333251953124,2.868401472905278,3.552579084086418,-0.026083302946574984
1772469483507340300,11.25434033203125,2.1466636541366575,2.70092075394094,-0.04147599279172718
1772469483517347300,11.264347412109375,1.6222645169794558,1.7044044555276632,0.06472082090936601
1772469483527354400,11.274354248046874,1.1262205366909503,1.1040870308160782,0.15537399198729543
1772469483537361400,11.284361328125,1.2480343139797447,0.5894909102708101,0.22289379596542566
1772469483547368200,11.2943681640625,1.188795943069458,0.11477262660562991,0.14944694002587347
1772469483557375200,11.304375244140624,-0.012557283756136893,-0.3304220409333706,-0.1068385274044238
