time,seconds_elapsed,z,y,x
1772469517645515300,0.175515380859375,0.021553631871938705,-0.33645814657211304,0.0904734879732132
1772469517655522000,0.18552197265625,0.04402671381831169,-0.3444838523864746,0.13226327300071716
1772469517665529000,0.195529052734375,0.06806041300296783,-0.34137779474258423,0.1433606743812561
1772469517675536100,0.2055361328125,0.08200765401124954,-0.30396944284439087,0.15837743878364563
1772469517685543200,0.215543212890625,0.08715159446001053,-0.21456964313983917,0.20555458962917328
1772469517695551200,0.22555126953125,0.07828806340694427,-0.12044713646173477,0.24997425079345703
1772469517705558000,0.23555810546875,0.060445636510849,-0.05779803544282913,0.28676310181617737
1772469517715565300,0.2455654296875,0.047240350395441055,-0.004022419452667236,0.32366812229156494
1772469517725572000,0.255572021484375,0.06582064926624298,-0.012562552466988564,0.33948659896850586
1772469517735579100,0.2655791015625,0.12146499752998352,-0.08801789581775665,0.31946176290512085
1772469517745586200,0.275586181640625,0.20733742415905,-0.15049830079078674,0.2924249470233917
1772469517755593000,0.285593017578125,0.3097125291824341,-0.2072095274925232,0.2208964228630066
1772469517765600300,0.295600341796875,0.39882346987724304,-0.2032487839460373,0.1077834814786911
1772469517775607000,0.30560693359375,0.4471374750137329,-0.08651816844940186,-0.018112394958734512
1772469517785614000,0.315614013671875,0.43884894251823425,0.0754069909453392,-0.1187155619263649
1772469517795622100,0.3256220703125,0.373674213886261,0.2385255992412567,-0.1513528674840927
1772469517805629000,0.33562890625,0.3034972548484802,0.37746644020080566,-0.13957016170024872
1772469517815636200,0.34563623046875,0.297092080116272,0.44262945652008057,-0.10319484770298004
1772469517825643000,0.35564306640625,0.3506774604320526,0.43394508957862854,-0.09623575955629349
1772469517835650300,0.365650390625,0.45868781208992004,0.4567018151283264,-0.13004431128501892
1772469517845657000,0.375656982421875,0.5777966380119324,0.5196441411972046,-0.1480666697025299
1772469517855664000,0.3856640625,0.6698940992355347,0.5919857025146484,-0.1478874385356903
1772469517865671200,0.395671142578125,0.6970808506011963,0.6916730403900146,-0.11635550111532211
1772469517875678000,0.405677978515625,0.6371203064918518,0.9088208079338074,-0.023888150230050087
1772469517885686300,0.415686279296875,0.5078783631324768,1.1685391664505005,0.15559691190719604
1772469517895693000,0.425693115234375,0.36984196305274963,1.2809813022613525,0.4236360788345337
1772469517905700000,0.4357001953125,0.29362285137176514,1.383988857269287,0.741865873336792
1772469517915707100,0.44570703125,0.24646012485027313,1.573471188545227,0.9894781112670898
1772469517925714000,0.4557138671875,0.17387978732585907,1.8010311126708984,1.0545473098754883
1772469517935721200,0.46572119140625,0.0482877716422081,1.9388636350631714,0.9499213695526123
1772469517945728000,0.47572802734375,0.034910671412944794,1.9034675359725952,0.7436888813972473
1772469517955735300,0.4857353515625,0.09605791419744492,1.597216248512268,0.4584049582481384
1772469517965742000,0.4957421875,0.10349173098802567,1.2169922590255737,0.19336599111557007
1772469517975749000,0.5057490234375,0.055649109184741974,0.9156638383865356,0.03934473544359207
1772469517985757200,0.515757080078125,-0.0313689261674881,0.6950178742408752,-0.00806642696261406
1772469517995764000,0.525763916015625,-0.11693522334098816,0.46372470259666443,0.026664122939109802
1772469518005771300,0.535771240234375,-0.1840612143278122,0.1662607192993164,0.11238707602024078
1772469518015778000,0.545778076171875,-0.26355472207069397,-0.09411732852458954,0.2413802146911621
1772469518025785000,0.55578515625,-0.33840614557266235,-0.27787071466445923,0.34415939450263977
1772469518035792100,0.565792236328125,-0.3918747007846832,-0.525270938873291,0.35092833638191223
1772469518045799000,0.575798828125,-0.40418243408203125,-0.7851390838623047,0.3568651080131531
1772469518055806200,0.58580615234375,-0.39631572365760803,-0.9355789422988892,0.4293031096458435
1772469518065813000,0.59581298828125,-0.3586674928665161,-0.9558401703834534,0.5289965271949768
1772469518075821000,0.605821044921875,-0.31296950578689575,-0.8783057332038879,0.6295785307884216
1772469518085828000,0.615828125,-0.271210253238678,-0.7534840703010559,0.6960561871528625
1772469518095835100,0.625835205078125,-0.23632575571537018,-0.582452654838562,0.7012246251106262
1772469518105842200,0.63584228515625,-0.21300730109214783,-0.34011340141296387,0.6591402888298035
1772469518115849000,0.645848876953125,-0.19158510863780975,-0.058851391077041626,0.6142119765281677
1772469518125856500,0.6558564453125,-0.16708986461162567,0.15034417808055878,0.5564100742340088
1772469518135863800,0.66586376953125,-0.135909304022789,0.2815799415111542,0.46665146946907043
1772469518145870600,0.67587060546875,-0.09698331356048584,0.3655354678630829,0.36158260703086853
1772469518155878000,0.6858779296875,-0.056934963911771774,0.3793330490589142,0.2605622708797455
1772469518165885700,0.6958857421875,-0.023892013356089592,0.31198054552078247,0.18287861347198486
1772469518175892700,0.705892822265625,0.0047838399186730385,0.21064436435699463,0.1365678310394287
1772469518185899800,0.715899658203125,0.017530173063278198,0.10266080498695374,0.11666032671928406
1772469518195906600,0.725906494140625,0.020203987136483192,-0.007179674692451954,0.10830812156200409
1772469518205913900,0.735913818359375,0.009086620062589645,-0.1165865883231163,0.11372268199920654
1772469518215920600,0.745920654296875,-0.002002515597268939,-0.1925431489944458,0.14710141718387604
1772469518225928000,0.755927978515625,0.005208125803619623,-0.20294944941997528,0.2077588140964508
1772469518235934700,0.765934814453125,-0.003352339146658778,-0.1927705854177475,0.23486340045928955
1772469518245941800,0.775941650390625,-0.003972189500927925,-0.22619351744651794,0.18760399520397186
1772469518255949800,0.78594970703125,0.05011767894029617,-0.34901025891304016,0.04970606043934822
1772469518265956600,0.79595654296875,0.12339095771312714,-0.4514860212802887,-0.1212373599410057
1772469518275964000,0.8059638671875,0.1445058286190033,-0.46936488151550293,-0.24864324927330017
1772469518285970700,0.815970703125,0.08036617189645767,-0.36958593130111694,-0.31398507952690125
1772469518295977700,0.825977783203125,-0.049705009907484055,-0.20500949025154114,-0.3279019594192505
1772469518305984800,0.83598486328125,-0.1996583342552185,-0.03155984356999397,-0.3240524232387543
1772469518315991600,0.845991455078125,-0.32927650213241577,0.09597200900316238,-0.32265612483024597
1772469518325998800,0.855998779296875,-0.39843273162841797,0.0901871845126152,-0.3791949152946472
1772469518336005600,0.866005615234375,-0.3881228268146515,-0.05050228536128998,-0.47132858633995056
1772469518346013700,0.876013671875,-0.32793503999710083,-0.2931521236896515,-0.5662689208984375
1772469518356020700,0.886020751953125,-0.23260772228240967,-0.5791683793067932,-0.609203577041626
1772469518366027800,0.89602783203125,-0.10460399091243744,-0.7511677742004395,-0.5933564901351929
1772469518376034800,0.906034912109375,0.012641942128539085,-0.8039761781692505,-0.5392395257949829
1772469518386041600,0.91604150390625,0.08429113775491714,-0.7287784814834595,-0.47691604495048523
1772469518396049000,0.926048828125,0.10264217853546143,-0.6677926182746887,-0.4171014428138733
1772469518406055700,0.9360556640625,0.07938484102487564,-0.5929881930351257,-0.3057143986225128
1772469518416062700,0.946062744140625,0.014697990380227566,-0.4113065302371979,-0.09531083703041077
1772469518426069800,0.95606982421875,-0.09544116258621216,-0.19026631116867065,0.1610744297504425
1772469518436077800,0.966077880859375,-0.23796582221984863,-0.06350383907556534,0.3837786018848419
1772469518446084900,0.9760849609375,-0.37855809926986694,-0.03282874822616577,0.5325962901115417
1772469518456091600,0.986091552734375,-0.4747191071510315,-0.07254207134246826,0.6255732178688049
1772469518466098700,0.9960986328125,-0.42037826776504517,-0.021032989025115967,0.652447521686554
1772469518476105700,1.006105712890625,-0.4317270815372467,0.14335809648036957,0.662899374961853
1772469518486112800,1.01611279296875,-0.4939797520637512,0.25244399905204773,0.7148333191871643
1772469518496119800,1.026119873046875,-0.6069667339324951,0.2584315836429596,0.7677002549171448
1772469518506126600,1.036126708984375,-0.7322149276733398,0.2915455996990204,0.7745677828788757
1772469518516134000,1.0461337890625,-0.8264093399047852,0.3816629946231842,0.7129417061805725
1772469518526141700,1.0561416015625,-0.7869765758514404,0.6507604718208313,0.7958053946495056
1772469518536148700,1.066148681640625,-0.6803430914878845,1.579565405845642,1.3146624565124512
1772469518546155800,1.07615576171875,-0.7413994073867798,1.084109902381897,1.218544363975525
1772469518556162800,1.086162841796875,-1.0757617950439453,-1.6386759281158447,-0.04152871295809746
1772469518566169900,1.096169921875,-1.050408959388733,-2.62880539894104,-0.4764461815357208
1772469518576176600,1.1061767578125,-0.8169522285461426,-2.6064465045928955,-0.1874529868364334
1772469518586183700,1.11618359375,-0.6447799205780029,-2.4950830936431885,0.22914321720600128
1772469518596190700,1.126190673828125,-0.6225633025169373,-2.6577563285827637,0.4269660413265228
1772469518606198800,1.13619873046875,-0.6843656301498413,-3.111100196838379,0.3092862665653229
1772469518616205600,1.14620556640625,-0.6738810539245605,-3.4095194339752197,0.06286957114934921
1772469518626212900,1.156212890625,-0.5279989242553711,-2.9464008808135986,-0.5577711462974548
1772469518636219600,1.1662197265625,-0.3719062805175781,-0.5575807690620422,-1.2471821308135986
1772469518646226700,1.176226806640625,0.0970064029097557,1.4120374917984009,-1.3038393259048462
1772469518656233700,1.186233642578125,0.5071691274642944,1.9759178161621094,-1.5112348794937134
1772469518666240800,1.19624072265625,0.8239406943321228,1.5511884689331055,-1.6490949392318726
1772469518676247800,1.206247802734375,1.1405220031738281,1.0709648132324219,-1.6225320100784302
1772469518686254800,1.2162548828125,1.5485115051269531,0.5964413285255432,-1.5179435014724731
1772469518696263000,1.226262939453125,1.8700376749038696,0.20078720152378082,-1.3940545320510864
1772469518706269700,1.236269775390625,1.8039054870605469,-0.10536348819732666,-1.2805395126342773
1772469518716276700,1.24627685546875,1.2673728466033936,-0.17411352694034576,-1.0916574001312256
1772469518726283800,1.25628369140625,0.7400843501091003,-0.27801135182380676,-0.90010666847229
1772469518736290800,1.266290771484375,0.5494038462638855,-0.4659719169139862,-0.7151666283607483
1772469518746297900,1.2762978515625,0.5146106481552124,-0.5183244347572327,-0.4513872563838959
1772469518756304600,1.2863046875,0.4016835689544678,-0.57575923204422,-0.16723033785820007
1772469518766311700,1.296311767578125,0.23518943786621094,-0.6625365614891052,0.05474366992712021
1772469518776318700,1.306318603515625,0.13560426235198975,-0.6698663830757141,0.15735633671283722
1772469518786326500,1.316326416015625,0.10600367188453674,-0.5568666458129883,0.1390736848115921
1772469518796333800,1.326333740234375,0.041090451180934906,-0.35205039381980896,0.08434414118528366
1772469518806340600,1.336340576171875,0.31564828753471375,-0.10931561887264252,0.007026250474154949
1772469518816348000,1.346347900390625,0.5435948967933655,0.41472548246383667,-0.07964871823787689
1772469518826354700,1.356354736328125,0.5171923041343689,0.8089233636856079,-0.1853441745042801
1772469518836361700,1.36636181640625,0.3971561789512634,1.1769922971725464,-0.2611182928085327
1772469518846368800,1.37636865234375,0.31974634528160095,1.4322090148925781,-0.3073905408382416
1772469518856375800,1.386375732421875,0.2359771579504013,1.5720045566558838,-0.3518671989440918
1772469518866382800,1.3963828125,0.08567691594362259,1.424601674079895,-0.3952002227306366
1772469518876390700,1.406390625,-0.12775519490242004,0.9471325874328613,-0.3736078441143036
1772469518886398000,1.41639794921875,-0.3793119788169861,0.22330254316329956,-0.297122985124588
1772469518896404700,1.42640478515625,-0.5794629454612732,-0.5053260922431946,-0.19069987535476685
1772469518906411500,1.43641162109375,-0.6973321437835693,-1.0750409364700317,-0.06831017136573792
1772469518916418800,1.446418701171875,-0.7555086016654968,-1.2327238321304321,0.01771712303161621
1772469518926425600,1.456425537109375,-0.7189700603485107,-0.938961923122406,-0.017821576446294785
1772469518936433000,1.466432861328125,-0.5792377591133118,-0.32422393560409546,-0.15120120346546173
1772469518946439700,1.476439697265625,-0.3723061680793762,0.23309268057346344,-0.31006085872650146
1772469518956446700,1.48644677734375,-0.2356783002614975,0.6410892009735107,-0.498976469039917
1772469518966454800,1.496454833984375,-0.1325802356004715,0.7009937167167664,-0.6135892271995544
1772469518976461600,1.506461669921875,-0.029672758653759956,0.5211315751075745,-0.6914576888084412
1772469518986468900,1.51646875,0.10067064315080643,0.17572003602981567,-0.7351607084274292
1772469518996475600,1.5264755859375,0.17893482744693756,-0.52821946144104,-0.7494014501571655
1772469519006483000,1.53648291015625,0.16918641328811646,-1.5208543539047241,-0.8694419264793396
1772469519016489700,1.54648974609375,0.13266435265541077,-2.599478006362915,-1.1143715381622314
1772469519026496800,1.556496826171875,0.1086868941783905,-3.553966999053955,-1.5109585523605347
1772469519036503800,1.56650390625,0.1480358988046646,-4.043824195861816,-2.2454984188079834
1772469519046510600,1.576510498046875,0.3409312665462494,-3.8804984092712402,-3.342066764831543
1772469519056519000,1.586518798828125,0.5675711035728455,-3.2447805404663086,-4.560080051422119
1772469519066525700,1.596525634765625,0.7085429430007935,-2.030886650085449,-5.297333717346191
1772469519076532700,1.60653271484375,0.861741304397583,-0.6113721132278442,-5.102383136749268
1772469519086539800,1.616539794921875,0.7654083967208862,0.11728156358003616,-3.944101572036743
1772469519096546600,1.626546630859375,0.5645122528076172,0.41852235794067383,-1.9650754928588867
1772469519106553900,1.636553955078125,0.486483633518219,0.4464038908481598,0.19544412195682526
1772469519116560600,1.646560546875,0.4997866749763489,0.36202216148376465,1.9467878341674805
1772469519126567700,1.656567626953125,0.4747963845729828,0.5592342019081116,3.034276247024536
1772469519136575500,1.666575439453125,0.44030579924583435,1.0369114875793457,3.653759479522705
1772469519146582500,1.67658251953125,0.3942696452140808,1.3042783737182617,4.133862495422363
1772469519156589600,1.686589599609375,0.3243288993835449,1.3321473598480225,4.52470588684082
1772469519166596400,1.696596435546875,0.18882833421230316,1.2338804006576538,4.713431358337402
1772469519176603600,1.706603759765625,0.07092060893774033,1.1412169933319092,4.737911224365234
1772469519186610400,1.7166103515625,-0.00735036376863718,1.0641337633132935,4.675380229949951
1772469519196617700,1.72661767578125,-0.08519429713487625,1.2184772491455078,4.588166236877441
1772469519206624500,1.73662451171875,-0.23604297637939453,1.503309726715088,4.510368824005127
1772469519216631300,1.74663134765625,-0.4048391580581665,1.6184728145599365,4.465391635894775
1772469519226639600,1.7566396484375,-0.4861484467983246,1.5409047603607178,4.548524856567383
1772469519236646400,1.766646484375,-0.5115746855735779,1.335436224937439,4.570483684539795
1772469519246653400,1.7766533203125,-0.5501983761787415,1.138837456703186,4.454369068145752
1772469519256660500,1.786660400390625,-0.637801468372345,0.9366099834442139,4.087818145751953
1772469519266667500,1.79666748046875,-0.6410440802574158,0.7221627235412598,3.6393423080444336
1772469519276674600,1.806674560546875,-0.5096637010574341,0.747856080532074,3.125311851501465
1772469519286681300,1.816681396484375,-0.2709388732910156,0.912879228591919,2.666914224624634
1772469519296688600,1.826688720703125,-0.029130227863788605,0.988557755947113,2.2857089042663574
1772469519306695400,1.8366953125,0.12171898037195206,0.9178169369697571,1.9713068008422852
1772469519316703500,1.846703369140625,0.14055845141410828,0.7781898379325867,1.6999459266662598
1772469519326710500,1.85671044921875,0.06292162090539932,0.6517263054847717,1.4493681192398071
1772469519336717600,1.866717529296875,-0.046867188066244125,0.5860764980316162,1.2101880311965942
1772469519346724600,1.876724609375,-0.1652381420135498,0.5200366377830505,0.9832395911216736
1772469519356731400,1.8867314453125,-0.24205781519412994,0.4164966940879822,0.7612792253494263
1772469519366738400,1.896738525390625,-0.2731786072254181,0.3608643710613251,0.5375968813896179
1772469519376745500,1.906745361328125,-0.3021612763404846,0.29021602869033813,0.2704879939556122
1772469519386752500,1.91675244140625,-0.35658907890319824,0.28120553493499756,-0.05931434407830238
1772469519396760600,1.926760498046875,-0.41720983386039734,0.36946961283683777,-0.4196946322917938
1772469519406767600,1.936767578125,-0.42359742522239685,0.49297475814819336,-0.7120701670646667
1772469519416774400,1.9467744140625,-0.4309983551502228,0.5234708786010742,-1.0026943683624268
1772469519426781400,1.956781494140625,-0.451456218957901,0.48779812455177307,-1.291274070739746
1772469519436788500,1.96678857421875,-0.443019837141037,0.3995766341686249,-1.5697901248931885
1772469519446795500,1.97679541015625,-0.4361167252063751,0.22675621509552002,-1.9229278564453125
1772469519456802600,1.986802490234375,-0.4689023792743683,0.10854487866163254,-2.2652523517608643
1772469519466809600,1.9968095703125,-0.5228516459465027,0.09714851528406143,-2.5949010848999023
1772469519476816400,2.00681640625,-0.6113926768302917,0.12404777109622955,-2.908301830291748
1772469519486824400,2.016824462890625,-0.6596603989601135,0.026851003989577293,-3.0691654682159424
1772469519496831500,2.02683154296875,-0.6384614109992981,-0.3070862293243408,-3.031449317932129
1772469519506838500,2.036838623046875,-0.5479629039764404,-0.8362479209899902,-2.823216199874878
1772469519516845600,2.046845458984375,-0.4450133144855499,-1.4700881242752075,-2.639617443084717
1772469519526852600,2.0568525390625,-0.3858114778995514,-1.9707660675048828,-2.625974178314209
1772469519536859400,2.066859375,-0.35985711216926575,-2.086634397506714,-2.8446478843688965
1772469519546866400,2.076866455078125,-0.29700198769569397,-1.835157871246338,-3.236758232116699
1772469519556873500,2.08687353515625,-0.21296752989292145,-1.3820286989212036,-3.784351348876953
1772469519566880500,2.096880615234375,-0.17285846173763275,-1.0852248668670654,-4.397546768188477
1772469519576888600,2.106888671875,-0.18871146440505981,-1.0477107763290405,-4.996265888214111
1772469519586895400,2.116895263671875,-0.1562609225511551,-0.9636361002922058,-5.355087757110596
1772469519596902700,2.126902587890625,-0.07380892336368561,-0.7948633432388306,-5.298069477081299
1772469519606909400,2.136909423828125,0.008997227996587753,-0.8458651900291443,-4.938082218170166
1772469519616916500,2.14691650390625,0.007947942242026329,-1.3231194019317627,-4.444040298461914
1772469519626923500,2.156923583984375,-0.03257529065012932,-1.926498293876648,-3.9386353492736816
1772469519636930600,2.1669306640625,0.04589102044701576,-2.1276426315307617,-3.440457344055176
1772469519646937600,2.1769375,0.19942119717597961,-1.639133095741272,-2.99330735206604
1772469519656945400,2.1869453125,0.3072246313095093,-0.7878789901733398,-2.5623843669891357
1772469519666952700,2.19695263671875,0.3641902208328247,-0.038385163992643356,-1.9060832262039185
1772469519676959500,2.20695947265625,0.351203054189682,0.28343653678894043,-0.8621999025344849
1772469519686966500,2.216966552734375,0.3319329023361206,0.1915205717086792,0.46554887294769287
1772469519696973600,2.2269736328125,0.3253921568393707,0.10746027529239655,1.7781171798706055
1772469519706980400,2.23698046875,0.31689491868019104,0.13481689989566803,2.7879464626312256
1772469519716987600,2.246987548828125,0.24447903037071228,0.1797577291727066,3.4259719848632812
1772469519726994400,2.256994384765625,0.11481891572475433,0.2211480587720871,3.7473998069763184
1772469519737001500,2.26700146484375,-0.033682145178318024,0.4251863956451416,3.8836028575897217
1772469519747009500,2.277009521484375,-0.2005404233932495,0.7994170784950256,3.890687942504883
1772469519757016300,2.287016357421875,-0.3309713900089264,1.2176055908203125,3.938483953475952
1772469519767023600,2.297023681640625,-0.37783774733543396,1.4245433807373047,4.136613368988037
1772469519777030400,2.307030517578125,-0.34724652767181396,1.406738042831421,4.44096565246582
1772469519787037700,2.31703759765625,-0.274053692817688,1.2891007661819458,4.760311603546143
1772469519797044500,2.32704443359375,-0.23487432301044464,1.115120768547058,4.986016750335693
1772469519807051500,2.337051513671875,-0.1990678310394287,0.8908774852752686,5.085262775421143
1772469519817058600,2.34705859375,-0.11571407318115234,0.8128985166549683,5.047255516052246
1772469519827066400,2.35706640625,0.008100233040750027,0.9035632610321045,4.852180004119873
1772469519837073700,2.36707373046875,0.10783907771110535,1.0834687948226929,4.535130023956299
1772469519847080400,2.37708056640625,0.17974305152893066,1.2913841009140015,4.145512104034424
1772469519857087500,2.38708740234375,0.2404564619064331,1.394814133644104,3.724551200866699
1772469519867094500,2.397094482421875,0.2801724970340729,1.3579953908920288,3.3572256565093994
1772469519877101300,2.407101318359375,0.24992510676383972,1.1560380458831787,3.041029930114746
1772469519887108600,2.417108642578125,0.15177053213119507,0.8927037715911865,2.736276149749756
1772469519897115400,2.427115478515625,0.07055291533470154,0.7926006317138672,2.4260270595550537
1772469519907122700,2.437122802734375,0.053722843527793884,0.842990517616272,2.089749813079834
1772469519917130500,2.447130615234375,0.08535400778055191,0.95768803358078,1.729453206062317
1772469519927137500,2.457137451171875,0.16027410328388214,1.045584797859192,1.315324068069458
1772469519937144600,2.46714453125,0.2586163878440857,0.9798696637153625,0.8333556652069092
1772469519947151400,2.4771513671875,0.3317297101020813,0.8689296841621399,0.3080551326274872
1772469519957158700,2.48715869140625,0.2702852487564087,0.7922958731651306,-0.29716071486473083
1772469519967165400,2.49716552734375,0.12046419829130173,0.6035054326057434,-1.0473664999008179
1772469519977172700,2.5071728515625,-0.04037236049771309,0.4667409658432007,-1.8830597400665283
1772469519987179500,2.517179443359375,-0.211128830909729,0.4086039364337921,-2.622636079788208
1772469519997186300,2.527186279296875,-0.3324563503265381,0.3468870520591736,-3.22743558883667
1772469520007194600,2.537194580078125,-0.39343616366386414,0.14592750370502472,-3.6178605556488037
1772469520017201400,2.547201416015625,-0.33378615975379944,-0.2562582790851593,-3.7248764038085938
1772469520027208400,2.55720849609375,-0.2918008863925934,-0.6490119695663452,-3.823639154434204
1772469520037215500,2.567215576171875,-0.39962029457092285,-1.0035375356674194,-3.9971234798431396
1772469520047222500,2.577222412109375,-0.5444261431694031,-1.2090591192245483,-4.058030605316162
1772469520057229600,2.5872294921875,-0.6242213845252991,-1.3272606134414673,-4.007033824920654
1772469520067236400,2.597236328125,-0.5550848245620728,-1.4564344882965088,-4.00050163269043
1772469520077243600,2.60724365234375,-0.3365682065486908,-1.5964903831481934,-4.1382951736450195
1772469520087251500,2.61725146484375,-0.021715808659791946,-1.879800796508789,-4.736386775970459
1772469520097258500,2.627258544921875,0.26568880677223206,-2.2201459407806396,-5.800208568572998
1772469520107265500,2.637265625,0.5154135823249817,-2.205052137374878,-6.774287700653076
1772469520117272600,2.6472724609375,0.5925725102424622,-1.7406251430511475,-7.48814582824707
1772469520127279900,2.65727978515625,0.5291789770126343,-1.1951186656951904,-7.747695446014404
1772469520137286700,2.66728662109375,0.43798327445983887,-0.7583491206169128,-7.2567853927612305
1772469520147293700,2.677293701171875,0.396384596824646,-0.7575765252113342,-6.162949562072754
1772469520157300700,2.68730078125,0.5202170610427856,-1.0429747104644775,-4.545953750610352
1772469520167307800,2.697307861328125,0.699215829372406,-1.2436902523040771,-2.709012746810913
1772469520177315600,2.707315673828125,0.8647603392601013,-1.0363773107528687,-1.0012073516845703
1772469520187323000,2.717322998046875,1.0306018590927124,-0.5211121439933777,0.5632010698318481
1772469520197329700,2.72732958984375,1.1911356449127197,0.1238253116607666,2.091175079345703
1772469520207336700,2.737336669921875,1.2461198568344116,0.6636712551116943,3.4571659564971924
1772469520217343700,2.74734375,1.0450661182403564,0.9246863126754761,4.373664855957031
1772469520227350800,2.757350830078125,0.6220539808273315,0.8879700899124146,4.915923118591309
1772469520237357800,2.76735791015625,0.13261984288692474,0.7337459325790405,5.245381832122803
1772469520247364900,2.77736474609375,-0.2810978889465332,0.5563099384307861,5.448625564575195
1772469520257373000,2.787373046875,-0.5540689826011658,0.5327960848808289,5.568100929260254
1772469520267379700,2.797379638671875,-0.618979275226593,0.6807576417922974,5.58230447769165
1772469520277386800,2.80738671875,-0.5435822606086731,0.8481625914573669,5.475557804107666
1772469520287393800,2.817393798828125,-0.43889158964157104,0.9062780141830444,5.293630123138428
1772469520297400800,2.82740087890625,-0.3251511752605438,0.7747700214385986,5.052873134613037
1772469520307408000,2.837407958984375,-0.2260938435792923,0.4744163453578949,4.783408164978027
1772469520317414700,2.84741455078125,-0.14754045009613037,0.25610584020614624,4.491207599639893
1772469520327421700,2.857421630859375,-0.04741637781262398,0.24941597878932953,4.088902473449707
1772469520337429800,2.8674296875,0.08831615746021271,0.34791621565818787,3.5610601902008057
1772469520347436500,2.8774365234375,0.24964474141597748,0.5044592618942261,2.979597806930542
1772469520357443800,2.88744384765625,0.38415753841400146,0.6485477089881897,2.414536237716675
1772469520367450600,2.89745068359375,0.4408673048019409,0.7496771216392517,1.8568593263626099
1772469520377458000,2.9074580078125,0.40269169211387634,0.801298201084137,1.309122920036316
1772469520387464700,2.917464599609375,0.32583504915237427,0.8209275007247925,0.7989252209663391
1772469520397471700,2.9274716796875,0.27054569125175476,0.8134208917617798,0.3504665195941925
1772469520407478800,2.937478759765625,0.2195882350206375,0.79682457447052,-0.06510283797979355
1772469520417485800,2.94748583984375,0.1879594773054123,0.7034419178962708,-0.42300930619239807
1772469520427494000,2.957493896484375,0.1603470742702484,0.6225733160972595,-0.7918834686279297
1772469520437500700,2.967500732421875,0.08992163836956024,0.5624002814292908,-1.1484853029251099
1772469520447508000,2.977508056640625,0.0074715930968523026,0.5095691084861755,-1.4471640586853027
1772469520457514800,2.9875146484375,-0.10549011081457138,0.42664411664009094,-1.6530256271362305
1772469520467521800,2.997521728515625,-0.19381549954414368,0.3690224587917328,-1.7461271286010742
1772469520477528800,3.00752880859375,-0.25468310713768005,0.30639901757240295,-1.8149996995925903
1772469520487535600,3.01753564453125,-0.2801420986652374,0.2539016604423523,-1.9082382917404175
1772469520497543000,3.02754296875,-0.2936379313468933,0.20917198061943054,-2.0102453231811523
1772469520507550700,3.03755078125,-0.3010052442550659,0.1011442318558693,-2.134126901626587
1772469520517557800,3.047557861328125,-0.3198588192462921,-0.14218373596668243,-2.3267385959625244
1772469520527564800,3.057564697265625,-0.40008577704429626,-0.3612326383590698,-2.5023703575134277
1772469520537571600,3.067571533203125,-0.472957581281662,-0.43616414070129395,-2.5401318073272705
1772469520547579000,3.077578857421875,-0.48503971099853516,-0.42120489478111267,-2.5027778148651123
1772469520557585700,3.087585693359375,-0.44403234124183655,-0.38608527183532715,-2.4310054779052734
1772469520567593000,3.097593017578125,-0.3835481107234955,-0.3797975182533264,-2.343336343765259
1772469520577599700,3.107599853515625,-0.33971646428108215,-0.5252420902252197,-2.309330463409424
1772469520587606800,3.117606689453125,-0.3457874655723572,-0.8170157074928284,-2.3879828453063965
1772469520597614800,3.12761474609375,-0.42440932989120483,-1.1617659330368042,-2.528059959411621
1772469520607621600,3.13762158203125,-0.4876410961151123,-1.624198317527771,-2.6843101978302
1772469520617629000,3.14762890625,-0.4756896495819092,-2.2169883251190186,-2.9287989139556885
1772469520627635700,3.1576357421875,-0.3511522710323334,-2.716831684112549,-3.2917678356170654
1772469520637642800,3.167642822265625,-0.04069345071911812,-3.021946430206299,-3.6932373046875
1772469520647649800,3.17764990234375,0.30195876955986023,-3.1192619800567627,-4.298727989196777
1772469520657656600,3.187656494140625,0.48638826608657837,-2.7172293663024902,-5.243040084838867
1772469520667664000,3.197663818359375,0.30052730441093445,-2.093595027923584,-6.815995216369629
1772469520677671700,3.207671630859375,-0.12214884907007217,-1.3743656873703003,-8.399852752685547
1772469520687678700,3.2176787109375,-0.4080389142036438,-0.5392388105392456,-8.760846138000488
1772469520697685800,3.227685791015625,-0.34503838419914246,0.11759813129901886,-7.353456020355225
1772469520707692800,3.23769287109375,0.31116539239883423,-0.13499514758586884,-4.670756816864014
1772469520717699800,3.247699951171875,0.8306106925010681,-0.8306820392608643,-1.8136277198791504
1772469520727706600,3.25770654296875,1.0530281066894531,-1.1802140474319458,0.6633480787277222
1772469520737714000,3.2677138671875,1.208686351776123,-0.924294650554657,2.730196952819824
1772469520747720700,3.277720703125,1.3059266805648804,-0.632967472076416,4.043833255767822
1772469520757728800,3.287728759765625,1.2323552370071411,-0.3041248619556427,4.640584468841553
1772469520767735800,3.29773583984375,0.9357108473777771,0.12048190087080002,4.737043857574463
1772469520777742800,3.307742919921875,0.48680922389030457,0.466587632894516,4.535341739654541
1772469520787750000,3.31775,0.029706371948122978,0.7147911190986633,4.2812933921813965
1772469520797756700,3.327756591796875,-0.30078765749931335,0.8673034310340881,4.136997222900391
1772469520807763700,3.337763671875,-0.3992813527584076,0.9339700937271118,4.123960971832275
1772469520817770800,3.347770751953125,-0.30220353603363037,0.9879904389381409,4.2101545333862305
1772469520827777800,3.35777783203125,-0.10755939036607742,0.9875444769859314,4.331323146820068
1772469520837785600,3.36778564453125,0.10276588797569275,0.8900988698005676,4.441810607910156
1772469520847793000,3.37779296875,0.28483328223228455,0.7460503578186035,4.547144412994385
1772469520857799700,3.387799560546875,0.37681010365486145,0.6497776508331299,4.616208553314209
1772469520867806700,3.397806640625,0.3690411150455475,0.562589168548584,4.590417861938477
1772469520877813800,3.407813720703125,0.33772075176239014,0.4867732524871826,4.495715618133545
1772469520887820800,3.41782080078125,0.31240925192832947,0.46847519278526306,4.362498760223389
1772469520897827800,3.427827880859375,0.3146492540836334,0.5793319344520569,4.160637855529785
1772469520907835000,3.4378349609375,0.3139130771160126,0.8803403377532959,3.8244457244873047
1772469520917841700,3.447841552734375,0.3088621497154236,1.2337173223495483,3.468278646469116
1772469520927849700,3.457849609375,0.3979986608028412,1.3426105976104736,3.1728508472442627
1772469520937856800,3.467856689453125,0.5155710577964783,1.1124359369277954,2.896111249923706
1772469520947863800,3.47786376953125,0.5555058717727661,0.7405707240104675,2.6286115646362305
1772469520957870800,3.487870849609375,0.5268252491950989,0.4885310232639313,2.3208301067352295
1772469520967878000,3.4978779296875,0.4352606534957886,0.5227197408676147,1.885575771331787
1772469520977884700,3.507884765625,0.3010818064212799,0.5598492622375488,1.3648170232772827
1772469520987891700,3.5178916015625,0.1377895176410675,0.4810413420200348,0.7791399955749512
1772469520997898800,3.527898681640625,-0.05146802216768265,0.4966413378715515,0.2639964818954468
1772469521007906600,3.537906494140625,-0.21548224985599518,0.7308527827262878,-0.10973075032234192
1772469521017913900,3.547913818359375,-0.27439287304878235,0.8660463690757751,-0.3615608215332031
1772469521027920600,3.557920654296875,-0.29656174778938293,0.6725896596908569,-0.6659558415412903
1772469521037928000,3.567927978515625,-0.2900431454181671,0.37817612290382385,-0.9630948901176453
1772469521047934700,3.577934814453125,-0.2576258182525635,0.10935955494642258,-1.3118818998336792
1772469521057941800,3.587941650390625,-0.23955519497394562,-0.003786972723901272,-1.7527681589126587
1772469521067948800,3.59794873046875,-0.2318020612001419,0.001062645111232996,-2.1645801067352295
1772469521077955800,3.607955810546875,-0.2560001015663147,0.01274380274116993,-2.5084214210510254
1772469521087964000,3.6179638671875,-0.3124893009662628,-0.04066704958677292,-2.687272071838379
1772469521097970700,3.627970703125,-0.3930656313896179,-0.13792462646961212,-2.7546777725219727
1772469521107978000,3.63797802734375,-0.43801799416542053,-0.40388235449790955,-2.8206474781036377
1772469521117984800,3.64798486328125,-0.44533050060272217,-0.8305301070213318,-2.9589028358459473
1772469521127991600,3.657991455078125,-0.4200420379638672,-1.4028596878051758,-3.131434679031372
1772469521137998600,3.66799853515625,-0.44119659066200256,-2.110621213912964,-3.250718832015991
1772469521148005400,3.67800537109375,-0.4913717806339264,-2.8394250869750977,-3.2365827560424805
1772469521158012700,3.6880126953125,-0.3613024652004242,-3.462772846221924,-3.1569371223449707
1772469521168020500,3.6980205078125,0.06131507456302643,-3.7822036743164062,-3.260756731033325
1772469521178027500,3.708027587890625,0.6696407198905945,-3.7745678424835205,-3.9083871841430664
1772469521188034600,3.71803466796875,1.3181349039077759,-3.439406633377075,-5.329863548278809
1772469521198041300,3.728041259765625,1.720929503440857,-2.7722480297088623,-7.360447883605957
1772469521208048600,3.738048583984375,1.4428932666778564,-2.2116641998291016,-9.073123931884766
1772469521218055400,3.748055419921875,0.5948883891105652,-1.5288424491882324,-9.504209518432617
1772469521228062700,3.758062744140625,-0.28774604201316833,-0.24736101925373077,-8.52565860748291
1772469521238069500,3.768069580078125,-0.23680533468723297,0.782346785068512,-6.643453121185303
1772469521248077600,3.77807763671875,0.4310154914855957,1.8194594383239746,-4.190310478210449
1772469521258084600,3.788084716796875,0.7967519164085388,2.1966238021850586,-1.5278100967407227
1772469521268091400,3.79809130859375,0.7426257729530334,1.758082389831543,1.2690980434417725
1772469521278098700,3.8080986328125,0.4334830939769745,0.7204725742340088,3.7091352939605713
1772469521288105500,3.81810546875,-0.040759094059467316,-0.2614412307739258,5.189642429351807
1772469521298112500,3.828112548828125,-0.5210959315299988,-0.7386671900749207,5.666318416595459
1772469521308119600,3.83811962890625,-0.7900440692901611,-0.409147173166275,5.44603967666626
1772469521318126300,3.848126220703125,-0.8375817537307739,0.4926050305366516,4.878714084625244
1772469521328134700,3.858134765625,-0.7939664125442505,1.5948941707611084,4.365845680236816
1772469521338141400,3.868141357421875,-0.7668207883834839,2.4112069606781006,4.141025066375732
1772469521348148500,3.8781484375,-0.6994041800498962,2.65324068069458,4.262970924377441
1772469521358155500,3.888155517578125,-0.6408905386924744,2.3528575897216797,4.593348979949951
1772469521368162600,3.89816259765625,-0.6230624914169312,1.6372182369232178,4.940422534942627
1772469521378169600,3.908169677734375,-0.6284215450286865,0.9077810049057007,5.080932140350342
1772469521388176400,3.91817626953125,-0.5478916764259338,0.5697299838066101,4.9500274658203125
1772469521398184400,3.928184326171875,-0.35602957010269165,0.6041079163551331,4.566486835479736
1772469521408191500,3.93819140625,-0.059034544974565506,0.8065365552902222,4.054477691650391
1772469521418198500,3.948198486328125,0.22635751962661743,0.9644302725791931,3.510082483291626
1772469521428205600,3.95820556640625,0.42867037653923035,1.0457763671875,3.0096487998962402
1772469521438212600,3.968212646484375,0.5493237972259521,1.0192387104034424,2.6291873455047607
1772469521448219600,3.9782197265625,0.5935752987861633,0.9546639323234558,2.3407936096191406
1772469521458226400,3.988226318359375,0.5784376263618469,0.8872079253196716,2.0813801288604736
1772469521468233500,3.9982333984375,0.5301091074943542,0.8152866959571838,1.8688290119171143
1772469521478241500,4.008241455078125,0.4481852054595947,0.8035194873809814,1.7079905271530151
1772469521488248600,4.01824853515625,0.31039494276046753,0.9829394221305847,1.5369004011154175
1772469521498255600,4.028255615234375,0.14361608028411865,1.2062774896621704,1.3413420915603638
1772469521508262700,4.0382626953125,0.039411019533872604,1.1603893041610718,1.1054530143737793
1772469521518269400,4.04826953125,-0.08680097758769989,0.8713992238044739,0.7697689533233643
1772469521528276500,4.0582763671875,-0.25160035490989685,0.5078264474868774,0.38430067896842957
1772469521538283500,4.068283447265625,-0.3876737952232361,0.13778577744960785,-0.06079823523759842
1772469521548290600,4.07829052734375,-0.5267901420593262,-0.14242474734783173,-0.5761617422103882
1772469521558298600,4.088298583984375,-0.7070704698562622,-0.23324386775493622,-1.2672550678253174
1772469521568305400,4.098305419921875,-0.8493331670761108,-0.12262636423110962,-2.082000494003296
1772469521578312700,4.108312744140625,-0.9356566071510315,-0.01731059141457081,-2.94746994972229
1772469521588319500,4.118319580078125,-0.9480191469192505,-0.1781150996685028,-3.740145683288574
1772469521598326500,4.128326416015625,-0.7817894220352173,-0.49555113911628723,-4.145866394042969
1772469521608333600,4.13833349609375,-0.5437131524085999,-0.8532580137252808,-4.217403888702393
1772469521618340600,4.148340576171875,-0.30749738216400146,-1.2247213125228882,-4.068048000335693
1772469521628347600,4.15834765625,-0.09436608850955963,-1.5681791305541992,-3.7644569873809814
1772469521638355500,4.16835546875,0.013970241881906986,-2.0515050888061523,-3.446340799331665
1772469521648362800,4.17836279296875,0.12495996057987213,-2.574415445327759,-3.260775089263916
1772469521658369500,4.18836962890625,0.31815338134765625,-2.8740384578704834,-3.317589282989502
1772469521668376300,4.198376220703125,0.5202175974845886,-2.885129928588867,-3.747847318649292
1772469521678383600,4.208383544921875,0.5825515389442444,-2.7358908653259277,-4.765689849853516
1772469521688390400,4.218390380859375,0.45215025544166565,-2.5793066024780273,-6.362406253814697
1772469521698397700,4.228397705078125,0.038128845393657684,-2.4567008018493652,-7.988996982574463
1772469521708404500,4.238404541015625,-0.294499009847641,-1.9514800310134888,-8.687397956848145
1772469521718412500,4.24841259765625,-0.2764022946357727,-1.36143958568573,-8.136261940002441
1772469521728419600,4.258419677734375,0.3636285066604614,-0.9796263575553894,-6.4018874168396
1772469521738426400,4.26842626953125,0.8670735359191895,-0.2163098007440567,-3.8530101776123047
1772469521748433700,4.27843359375,0.8599174618721008,0.025014229118824005,-0.850014328956604
1772469521758440400,4.2884404296875,0.665414035320282,-0.4673057198524475,1.853176474571228
1772469521768447700,4.29844775390625,0.5264283418655396,-1.156383752822876,3.8373656272888184
1772469521778454500,4.30845458984375,0.5432328581809998,-1.4257131814956665,4.999133110046387
1772469521788461600,4.318461669921875,0.5940647721290588,-0.8054234385490417,5.430512428283691
1772469521798469600,4.3284697265625,0.3944861590862274,0.3043091595172882,5.281983852386475
1772469521808476400,4.338476318359375,-0.060115303844213486,1.062713623046875,4.746091365814209
1772469521818483700,4.348483642578125,-0.5318748950958252,1.3652836084365845,4.194845676422119
1772469521828490500,4.358490478515625,-0.8788530230522156,1.433036208152771,3.8111088275909424
1772469521838497500,4.36849755859375,-1.133802056312561,1.4575601816177368,3.592514991760254
1772469521848504600,4.378504638671875,-1.177127480506897,1.549330234527588,3.4998550415039062
1772469521858511400,4.388511474609375,-1.0762943029403687,1.5660922527313232,3.4516685009002686
1772469521868519400,4.39851953125,-0.9001826047897339,1.4376028776168823,3.4278151988983154
1772469521878526500,4.4085263671875,-0.7368240356445312,1.291932225227356,3.387523651123047
1772469521888533500,4.418533447265625,-0.6292723417282104,1.0911941528320312,3.3175265789031982
1772469521898540500,4.42854052734375,-0.5044936537742615,0.9239593744277954,3.2284629344940186
1772469521908547600,4.438547607421875,-0.2905530333518982,0.9341318607330322,3.1585376262664795
1772469521918554600,4.4485546875,-0.002445084974169731,1.126542091369629,3.0851211547851562
1772469521928561400,4.4585615234375,0.24440345168113708,1.323971152305603,2.946967124938965
1772469521938568700,4.468568603515625,0.42961642146110535,1.440374732017517,2.742567777633667
1772469521948576500,4.478576416015625,0.5147217512130737,1.422956109046936,2.5313076972961426
1772469521958583600,4.48858349609375,0.5449819564819336,1.292285680770874,2.322089433670044
1772469521968590600,4.498590576171875,0.5217472314834595,1.0980117321014404,2.108214855194092
1772469521978597600,4.50859765625,0.4163835346698761,0.9572697877883911,1.9135850667953491
1772469521988604700,4.518604736328125,0.2949276864528656,0.9099370837211609,1.7462000846862793
1772469521998611500,4.528611572265625,0.16216273605823517,0.8488521575927734,1.5739710330963135
1772469522008618500,4.538618408203125,0.02496754564344883,0.7090253829956055,1.3817702531814575
1772469522018625500,4.54862548828125,-0.15045008063316345,0.49613338708877563,1.1418439149856567
1772469522028633600,4.558633544921875,-0.30745741724967957,0.2732377052307129,0.8450058102607727
1772469522038640400,4.568640380859375,-0.4311862885951996,0.12381413578987122,0.4921444356441498
1772469522048647700,4.578647705078125,-0.5469380617141724,0.1059982031583786,0.10749771445989609
1772469522058654500,4.588654541015625,-0.6148995161056519,0.24107347428798676,-0.2736310064792633
1772469522068661500,4.59866162109375,-0.6433950066566467,0.3861502408981323,-0.6700206398963928
1772469522078668500,4.60866845703125,-0.6447795629501343,0.3415074050426483,-1.0353034734725952
1772469522088675600,4.618675537109375,-0.6908109784126282,0.027908017858862877,-1.3172203302383423
1772469522098683600,4.62868359375,-0.778468906879425,-0.40280768275260925,-1.6040990352630615
1772469522108690400,4.6386904296875,-0.8027650713920593,-0.733066737651825,-2.0146942138671875
1772469522118697700,4.64869775390625,-0.7377572655677795,-0.9141659140586853,-2.5092978477478027
1772469522128705300,4.658705322265625,-0.6616424322128296,-1.0318986177444458,-3.00012469291687
1772469522138712300,4.66871240234375,-0.5622466206550598,-1.1472967863082886,-3.380169153213501
1772469522148719400,4.67871923828125,-0.4260469377040863,-1.3779544830322266,-3.5785324573516846
1772469522158726400,4.688726318359375,-0.26017168164253235,-1.7050373554229736,-3.609421968460083
1772469522168733400,4.6987333984375,-0.10276716202497482,-2.0306780338287354,-3.5038483142852783
1772469522178741500,4.708741455078125,0.04184035584330559,-2.294090986251831,-3.320242404937744
1772469522188748300,4.718748291015625,0.12214336544275284,-2.48689866065979,-3.352506637573242
1772469522198755300,4.72875537109375,0.15674209594726562,-2.745074510574341,-4.09706974029541
1772469522208762400,4.738762451171875,-0.037150997668504715,-3.1753969192504883,-5.666457176208496
1772469522218769400,4.748769287109375,-0.42695069313049316,-2.8901896476745605,-7.32768440246582
1772469522228776400,4.7587763671875,-0.7281396389007568,-1.5794923305511475,-8.214492797851562
1772469522238783200,4.768783203125,-0.5549452304840088,-0.3050318658351898,-7.872002601623535
1772469522248791600,4.77879150390625,-0.006294725928455591,0.47848159074783325,-6.096182346343994
1772469522258798300,4.78879833984375,0.45422759652137756,0.6771414279937744,-3.4034337997436523
1772469522268805400,4.798805419921875,0.4537293016910553,0.11036249995231628,-0.4729856848716736
1772469522278812400,4.8088125,0.2649354040622711,-0.9252747893333435,2.079385757446289
1772469522288819200,4.818819091796875,0.1844198852777481,-1.5790966749191284,3.7598884105682373
1772469522298826500,4.828826416015625,0.1881970465183258,-1.4778918027877808,4.523749351501465
1772469522308833300,4.838833251953125,0.1552993655204773,-0.5641260147094727,4.494394779205322
1772469522318840300,4.84884033203125,-0.06363671272993088,0.6773459315299988,3.960002899169922
1772469522328848400,4.858848388671875,-0.3425085246562958,1.5407862663269043,3.375873565673828
1772469522338855200,4.868855224609375,-0.6266723275184631,1.9050183296203613,3.068953514099121
1772469522348862500,4.878862548828125,-0.8414067625999451,1.846869707107544,3.1407365798950195
1772469522358869200,4.888869140625,-0.8636782765388489,1.4517358541488647,3.4190926551818848
1772469522368876500,4.89887646484375,-0.8229720592498779,1.005751609802246,3.772749900817871
1772469522378883300,4.90888330078125,-0.7394494414329529,0.6960586905479431,4.029334545135498
1772469522388890400,4.918890380859375,-0.5858540534973145,0.6978511810302734,4.095619201660156
1772469522398898400,4.9288984375,-0.37806597352027893,0.8436120748519897,4.035649299621582
1772469522408905200,4.9389052734375,-0.1719471961259842,0.9453656673431396,3.9279937744140625
1772469522418912500,4.94891259765625,-0.005082056857645512,0.762279212474823,3.800597906112671
1772469522428919300,4.958919189453125,0.039525847882032394,0.44628164172172546,3.6598620414733887
1772469522438926300,4.96892626953125,0.05197799205780029,0.32853665947914124,3.4704036712646484
1772469522448933400,4.978933349609375,0.12209848314523697,0.5094984769821167,3.2084174156188965
1772469522458940200,4.988940185546875,0.2121141403913498,0.8631774187088013,2.9051618576049805
1772469522468947500,4.998947509765625,0.23859421908855438,1.20875883102417,2.59789776802063
1772469522478955300,5.008955322265625,0.21734511852264404,1.3912663459777832,2.2902252674102783
1772469522488962300,5.01896240234375,0.1558157056570053,1.37052321434021,2.050017833709717
1772469522498969300,5.02896923828125,-0.0070528388023376465,1.0798367261886597,1.8628652095794678
1772469522508976400,5.038976318359375,-0.2189760059118271,0.6747193932533264,1.6605784893035889
1772469522518983400,5.0489833984375,-0.39705386757850647,0.37356430292129517,1.3553900718688965
1772469522528990200,5.058990234375,-0.4789273738861084,0.24495935440063477,0.9513376355171204
1772469522538997500,5.06899755859375,-0.49372604489326477,0.2633572816848755,0.5309696197509766
1772469522549005300,5.07900537109375,-0.5436229109764099,0.2823035418987274,0.12660911679267883
1772469522559012400,5.089012451171875,-0.6392266750335693,0.17220474779605865,-0.22579580545425415
1772469522569019400,5.099019287109375,-0.7008875608444214,0.043452538549900055,-0.4564085304737091
1772469522579026400,5.1090263671875,-0.6863786578178406,-0.1566384881734848,-0.5999489426612854
1772469522589033500,5.119033447265625,-0.6129788160324097,-0.3411182463169098,-0.7328296303749084
1772469522599040300,5.129040283203125,-0.5038933157920837,-0.4408815801143646,-0.94253009557724
1772469522609047300,5.13904736328125,-0.3855951726436615,-0.6344345211982727,-1.2351101636886597
1772469522619054300,5.149054443359375,-0.2665252387523651,-0.91341632604599,-1.5420833826065063
1772469522629062400,5.1590625,-0.12358344346284866,-1.122116208076477,-1.8827934265136719
1772469522639069400,5.1690693359375,0.0201774500310421,-1.1766232252120972,-2.278679370880127
1772469522649076500,5.179076416015625,0.1291685253381729,-1.1718919277191162,-2.707937240600586
1772469522659083300,5.189083251953125,0.17872755229473114,-1.144697904586792,-3.082284688949585
1772469522669090300,5.19909033203125,0.23220542073249817,-1.1499336957931519,-3.373969078063965
1772469522679097300,5.209097412109375,0.3249044716358185,-1.2560840845108032,-3.538759708404541
1772469522689104400,5.2191044921875,0.39019712805747986,-1.4761840105056763,-3.6148085594177246
1772469522699112400,5.229112548828125,0.3943521976470947,-1.796010971069336,-3.6747496128082275
1772469522709119200,5.239119140625,0.3484113812446594,-2.291722536087036,-3.8524296283721924
1772469522719126500,5.24912646484375,0.3832396864891052,-2.8903989791870117,-4.407820224761963
1772469522729133300,5.25913330078125,0.6687299013137817,-3.311534881591797,-5.663480281829834
1772469522739140400,5.269140380859375,1.0694221258163452,-3.0129764080047607,-7.6649675369262695
1772469522749147400,5.2791474609375,1.3560535907745361,-1.9667980670928955,-9.616793632507324
1772469522759154400,5.289154541015625,1.3998208045959473,-0.07858362793922424,-10.393976211547852
1772469522769161500,5.299161376953125,1.4659276008605957,1.7366334199905396,-9.675070762634277
1772469522779169300,5.309169189453125,1.6315150260925293,2.249587297439575,-7.9509806632995605
1772469522789176600,5.319176513671875,1.4594141244888306,1.727759838104248,-5.412625312805176
1772469522799183400,5.329183349609375,1.1426239013671875,0.8507363796234131,-2.3408048152923584
1772469522809190400,5.3391904296875,0.6182148456573486,-0.09383155405521393,0.7863636612892151
1772469522819197400,5.349197509765625,0.1969674974679947,-0.7155704498291016,3.3889517784118652
1772469522829204200,5.359204345703125,0.011088481172919273,-0.9937390685081482,4.886329174041748
1772469522839211500,5.36921142578125,-0.05277332291007042,-0.8271682262420654,5.252419948577881
1772469522849219300,5.37921923828125,-0.152330219745636,-0.26471638679504395,4.659955978393555
1772469522859226400,5.389226318359375,-0.3339911103248596,0.5415105819702148,3.714848279953003
1772469522869233400,5.3992333984375,-0.48745542764663696,1.3632434606552124,3.1608569622039795
1772469522879240200,5.409240234375,-0.536251962184906,2.070878744125366,3.1664576530456543
1772469522889247500,5.41924755859375,-0.4698098599910736,2.3742024898529053,3.672685384750366
1772469522899254300,5.429254150390625,-0.4152315855026245,2.1608526706695557,4.432657718658447
1772469522909261600,5.439261474609375,-0.42520689964294434,1.5671913623809814,5.129880428314209
1772469522919268400,5.449268310546875,-0.4952333867549896,0.8687968254089355,5.554769992828369
1772469522929276400,5.4592763671875,-0.6079566478729248,0.3499141037464142,5.69144344329834
1772469522939283500,5.469283447265625,-0.6249321699142456,0.10248886793851852,5.638835430145264
1772469522949290200,5.479290283203125,-0.49527040123939514,0.10227252542972565,5.440420627593994
1772469522959297500,5.489297607421875,-0.18638339638710022,0.22175444662570953,5.126374244689941
1772469522969304300,5.49930419921875,0.09728731960058212,0.41511431336402893,4.709680557250977
1772469522979311400,5.509311279296875,0.32094863057136536,0.5541348457336426,4.295422554016113
1772469522989318400,5.519318359375,0.4479096829891205,0.4519643783569336,3.9393017292022705
1772469522999326500,5.529326416015625,0.4069971442222595,0.24862726032733917,3.667771339416504
1772469523009333200,5.539333251953125,0.23233090341091156,-0.13554401695728302,3.4407737255096436
1772469523019340300,5.54934033203125,0.06203879415988922,-0.4583894610404968,3.2658276557922363
1772469523029347300,5.559347412109375,-0.06952225416898727,-0.6286089420318604,3.0302734375
1772469523039354400,5.569354248046875,-0.12422304600477219,-0.5981721878051758,2.6719024181365967
1772469523049361400,5.579361328125,-0.16068989038467407,-0.3719267249107361,2.151148557662964
1772469523059368400,5.589368408203125,-0.19184726476669312,-0.06941160559654236,1.5204437971115112
1772469523069375200,5.599375244140625,-0.20109517872333527,0.22350166738033295,0.9182282090187073
1772469523079383300,5.60938330078125,-0.19952258467674255,0.32663416862487793,0.42401236295700073
1772469523089390300,5.619390380859375,-0.23291058838367462,0.22637459635734558,0.03578595072031021
1772469523099397400,5.6293974609375,-0.35724079608917236,-0.15517649054527283,-0.280597060918808
1772469523109404400,5.639404296875,-0.6620059013366699,-0.7906810641288757,-0.563037633895874
1772469523119411500,5.649411376953125,-1.10760498046875,-1.548915982246399,-0.760749340057373
1772469523129418200,5.659418212890625,-1.1033868789672852,-1.8657236099243164,-0.733483612537384
1772469523139425300,5.66942529296875,-0.9755803942680359,-1.9720722436904907,-0.7726088762283325
1772469523149433000,5.67943310546875,-0.8486697673797607,-2.0370607376098633,-0.9647964239120483
1772469523159440400,5.6894404296875,-0.5903279185295105,-2.032655954360962,-1.2360596656799316
1772469523169447200,5.699447265625,-0.21548780798912048,-1.9656411409378052,-1.6184921264648438
1772469523179454200,5.7094541015625,0.16049914062023163,-1.7811537981033325,-2.0643224716186523
1772469523189461200,5.719461181640625,0.5005432963371277,-1.4975740909576416,-2.4796154499053955
1772469523199468000,5.729468017578125,0.8263198137283325,-1.1981180906295776,-2.8684587478637695
1772469523209475300,5.739475341796875,1.152538537979126,-0.934203028678894,-3.246063232421875
1772469523219483100,5.749483154296875,1.4460161924362183,-0.9680065512657166,-3.557159423828125
1772469523229490200,5.759490234375,1.606511116027832,-1.20457124710083,-3.829078435897827
1772469523239497200,5.769497314453125,1.717397928237915,-1.4362268447875977,-4.096616268157959
1772469523249504300,5.779504150390625,1.7722227573394775,-1.6730594635009766,-4.485501766204834
1772469523259511300,5.78951123046875,1.8243345022201538,-1.9842801094055176,-5.207971572875977
1772469523269518000,5.79951806640625,2.0365915298461914,-1.9547359943389893,-6.415032863616943
1772469523279525400,5.809525390625,2.333921432495117,-0.9911806583404541,-8.088857650756836
1772469523289533200,5.819533203125,2.6256959438323975,0.48291656374931335,-9.79040241241455
1772469523299540200,5.829540283203125,2.6442067623138428,2.450291395187378,-10.329483985900879
1772469523309547300,5.83954736328125,2.392136812210083,3.6633336544036865,-9.437801361083984
1772469523319554300,5.84955419921875,2.162526845932007,3.220524787902832,-7.387317180633545
1772469523329561300,5.859561279296875,1.7421430349349976,2.4242191314697266,-4.554207801818848
1772469523339568000,5.869568115234375,1.2244982719421387,1.197632074356079,-1.148963451385498
1772469523349575200,5.8795751953125,0.6732897758483887,0.08338725566864014,2.0276131629943848
1772469523359582200,5.889582275390625,0.17368902266025543,-0.9946563839912415,4.468782901763916
1772469523369590300,5.89959033203125,-0.17091992497444153,-1.7581535577774048,5.969541549682617
1772469523379597300,5.909597412109375,-0.32320109009742737,-1.624984622001648,6.525616645812988
1772469523389604400,5.919604248046875,-0.4763978123664856,-1.1454880237579346,6.1045989990234375
1772469523399611100,5.929611083984375,-0.6332071423530579,-0.24192257225513458,5.090499401092529
1772469523409618200,5.9396181640625,-0.77459716796875,0.8853878378868103,4.060698986053467
1772469523419625200,5.949625244140625,-0.6903733611106873,1.7421350479125977,3.580247163772583
1772469523429632300,5.95963232421875,-0.584871768951416,2.118041753768921,3.6725070476531982
1772469523439640300,5.969640380859375,-0.629923939704895,1.9323030710220337,4.064947605133057
1772469523449647000,5.979647216796875,-0.8760852217674255,1.4143115282058716,4.5163893699646
1772469523459654400,5.989654296875,-1.095794677734375,0.951862096786499,4.914933681488037
1772469523469661200,5.9996611328125,-1.1893340349197388,0.6383259296417236,5.151656627655029
1772469523479668200,6.009668212890625,-1.1886879205703735,0.450683057308197,5.179053783416748
1772469523489675300,6.01967529296875,-1.1561311483383179,0.34663423895835876,5.015355110168457
1772469523499682300,6.029682373046875,-1.0530809164047241,0.2549125552177429,4.736498832702637
1772469523509690400,6.0396904296875,-0.8521882891654968,0.2301023006439209,4.408018589019775
1772469523519697200,6.049697265625,-0.6001781225204468,0.3717140555381775,4.041181564331055
1772469523529704400,6.059704345703125,-0.4172402024269104,0.4230065941810608,3.572950839996338
1772469523539711200,6.069711181640625,-0.3402330279350281,0.39290833473205566,3.07731294631958
1772469523549718000,6.079718017578125,-0.279977411031723,0.3832527995109558,2.656796932220459
1772469523559725300,6.089725341796875,-0.19444972276687622,0.4307366907596588,2.3546159267425537
1772469523569732000,6.099732177734375,-0.04880889132618904,0.5410243272781372,2.157482862472534
1772469523579740200,6.109740234375,0.028291882947087288,0.5293450355529785,1.933985948562622
1772469523589747200,6.119747314453125,-0.04339553043246269,0.28420618176460266,1.6129775047302246
1772469523599754200,6.129754150390625,-0.19676245748996735,-0.05096407234668732,1.2026680707931519
1772469523609761300,6.13976123046875,-0.3093218207359314,-0.26918599009513855,0.7275627851486206
1772469523619768000,6.14976806640625,-0.3223199248313904,-0.36901405453681946,0.20607535541057587
1772469523629775400,6.159775390625,-0.2799147367477417,-0.4318946599960327,-0.340921014547348
1772469523639782100,6.1697822265625,-0.22853249311447144,-0.4007665514945984,-0.8627919554710388
1772469523649789400,6.17978955078125,-0.13892579078674316,-0.34124383330345154,-1.3529423475265503
1772469523659797200,6.18979736328125,-0.04927125945687294,-0.2795109450817108,-1.779672622680664
1772469523669804300,6.19980419921875,0.003629235550761223,-0.2591777443885803,-2.1526079177856445
1772469523679811300,6.209811279296875,0.03313625976443291,-0.32269227504730225,-2.4412460327148438
1772469523689818000,6.219818115234375,0.06528256833553314,-0.4100041389465332,-2.6000308990478516
1772469523699825400,6.229825439453125,0.13639216125011444,-0.46761661767959595,-2.6472556591033936
1772469523709832200,6.239832275390625,0.23244106769561768,-0.4823042154312134,-2.652068853378296
1772469523719839200,6.249839111328125,0.2970530688762665,-0.543762743473053,-2.6588218212127686
1772469523729847300,6.259847412109375,0.3520810008049011,-0.6085419058799744,-2.6867733001708984
1772469523739854300,6.269854248046875,0.4216739237308502,-0.6223996877670288,-2.746654987335205
1772469523749861000,6.279861083984375,0.5318913459777832,-0.6176630258560181,-2.771562337875366
1772469523759868200,6.2898681640625,0.6801031827926636,-0.6178368926048279,-2.7243597507476807
1772469523769875200,6.299875244140625,0.8033959865570068,-0.6615168452262878,-2.692357063293457
1772469523779882200,6.30988232421875,0.8474737405776978,-0.7624687552452087,-2.7717840671539307
1772469523789889300,6.31988916015625,0.8099308609962463,-0.9420246481895447,-3.0358641147613525
1772469523799897000,6.32989697265625,0.8225617408752441,-1.1838159561157227,-3.4536843299865723
1772469523809904400,6.339904296875,0.9171361327171326,-1.4621397256851196,-4.071520805358887
1772469523819911200,6.3499111328125,1.0293060541152954,-1.5711777210235596,-4.963615894317627
1772469523829918200,6.359918212890625,1.1032910346984863,-1.1296027898788452,-6.031077861785889
1772469523839925200,6.36992529296875,1.1110408306121826,-0.2432388812303543,-6.883328914642334
1772469523849932300,6.379932373046875,1.0413180589675903,0.6616343259811401,-7.147805213928223
1772469523859939300,6.389939208984375,0.9962883591651917,1.0516231060028076,-6.571636199951172
1772469523869947100,6.399947021484375,0.9709676504135132,0.8991143107414246,-5.200356483459473
1772469523879954400,6.409954345703125,0.9145510196685791,0.581229567527771,-3.374552011489868
1772469523889961200,6.419961181640625,0.7948404550552368,0.16204026341438293,-1.3971449136734009
1772469523899968300,6.42996826171875,0.6555076241493225,-0.22369545698165894,0.4489234387874603
1772469523909975300,6.439975341796875,0.5317639708518982,-0.5008469223976135,1.9593441486358643
1772469523919982000,6.449982177734375,0.371069073677063,-0.6324584484100342,2.964599847793579
1772469523929989400,6.4599892578125,0.22366191446781158,-0.362887978553772,3.491166114807129
1772469523939997200,6.4699970703125,0.13469024002552032,0.07225657254457474,3.5690932273864746
1772469523950004200,6.480004150390625,-0.10298234224319458,0.6699502468109131,3.1868531703948975
1772469523960011300,6.49001123046875,-0.32491153478622437,1.023742437362671,2.9115474224090576
1772469523970018000,6.50001806640625,-0.49089035391807556,1.2996599674224854,2.9353673458099365
1772469523980025300,6.510025390625,-0.566438615322113,1.6009275913238525,3.1929683685302734
1772469523990032100,6.5200322265625,-0.5772482752799988,1.674104928970337,3.6926493644714355
1772469524000039400,6.530039306640625,-0.5837098956108093,1.5964030027389526,4.241479873657227
1772469524010046200,6.540046142578125,-0.5850270986557007,1.515702486038208,4.6357903480529785
1772469524020054300,6.55005419921875,-0.6121453046798706,1.3730777502059937,4.826547145843506
1772469524030061300,6.560061279296875,-0.7038315534591675,1.1123104095458984,4.87244987487793
1772469524040068000,6.570068115234375,-0.8218258619308472,0.71089768409729,4.86095666885376
1772469524050075400,6.580075439453125,-0.8421294093132019,0.36859822273254395,4.819762706756592
1772469524060082200,6.590082275390625,-0.7465054392814636,0.11259946972131729,4.6840925216674805
1772469524070089200,6.600089111328125,-0.5650007128715515,0.0059485663659870625,4.480041027069092
1772469524080096300,6.61009619140625,-0.3553822338581085,0.05736062675714493,4.184190273284912
1772469524090104300,6.620104248046875,-0.21294178068637848,0.14398375153541565,3.7490193843841553
1772469524100111400,6.630111328125,-0.20330752432346344,0.1730620115995407,3.200096607208252
1772469524110118100,6.6401181640625,-0.2897602915763855,0.11462995409965515,2.6487343311309814
1772469524120125200,6.650125244140625,-0.4218405783176422,-0.007964406162500381,2.220959424972534
1772469524130131700,6.660131591796875,-0.4742949903011322,-0.11398564279079437,1.9941425323486328
1772469524140138800,6.670138671875,-0.3806087076663971,-0.005894331261515617,1.8758646249771118
1772469524150145500,6.6801455078125,-0.24799351394176483,0.08205167949199677,1.6826446056365967
1772469524160153600,6.690153564453125,-0.18349361419677734,0.05230683088302612,1.3455395698547363
1772469524170160600,6.70016064453125,-0.23956085741519928,-0.17609438300132751,0.8246811628341675
1772469524180167700,6.710167724609375,-0.34261003136634827,-0.38440605998039246,0.18660268187522888
1772469524190174500,6.720174560546875,-0.441094309091568,-0.4985756576061249,-0.46304407715797424
1772469524200181800,6.730181640625,-0.5194886922836304,-0.6001246571540833,-1.0309267044067383
1772469524210188500,6.7401884765625,-0.5712172985076904,-0.6221511363983154,-1.4837921857833862
1772469524220195600,6.750195556640625,-0.5176321268081665,-0.5991036295890808,-1.8247073888778687
1772469524230203600,6.76020361328125,-0.3870750963687897,-0.5456958413124084,-2.0839385986328125
1772469524240210400,6.77021044921875,-0.2393902987241745,-0.4930252134799957,-2.308741331100464
1772469524250217700,6.7802177734375,-0.11269102990627289,-0.5280282497406006,-2.51223087310791
1772469524260224500,6.790224609375,-0.009976102970540524,-0.5687759518623352,-2.6931746006011963
1772469524270231800,6.800231689453125,0.0873062014579773,-0.5719226598739624,-2.8323280811309814
1772469524280238600,6.810238525390625,0.17999060451984406,-0.6213062405586243,-2.902824640274048
1772469524290245600,6.82024560546875,0.22938202321529388,-0.6661869883537292,-2.937549352645874
1772469524300253700,6.830253662109375,0.25156670808792114,-0.7298615574836731,-2.9487698078155518
1772469524310260500,6.840260498046875,0.2833576798439026,-0.8045393228530884,-2.9398481845855713
1772469524320267800,6.850267822265625,0.3506797254085541,-0.8469656109809875,-2.93904972076416
1772469524330274600,6.860274658203125,0.4892919957637787,-0.9646824598312378,-2.9802818298339844
1772469524340281600,6.870281494140625,0.6383339166641235,-1.1762861013412476,-3.220757246017456
1772469524350288600,6.88028857421875,0.7306358814239502,-1.462950348854065,-3.7405028343200684
1772469524360295400,6.89029541015625,0.8340378999710083,-1.568840503692627,-4.432708263397217
1772469524370303700,6.9003037109375,0.9959889650344849,-1.0821493864059448,-5.085023403167725
1772469524380310500,6.910310546875,1.2778297662734985,-0.2523738741874695,-5.391144275665283
1772469524390317600,6.920317626953125,1.5769563913345337,0.07691675424575806,-5.285635948181152
1772469524400324600,6.93032470703125,1.6385278701782227,-0.4128923714160919,-4.86124849319458
1772469524410331600,6.94033154296875,1.4731734991073608,-1.4209706783294678,-4.167940616607666
1772469524420338700,6.950338623046875,1.152031660079956,-1.958380103111267,-3.2105300426483154
1772469524430345500,6.960345458984375,0.803814172744751,-1.8264769315719604,-2.082348346710205
1772469524440353500,6.970353515625,0.5985385179519653,-1.4895564317703247,-0.86685711145401
1772469524450360600,6.980360595703125,0.43541377782821655,-0.9822764992713928,0.083036407828331
1772469524460367600,6.99036767578125,0.39861127734184265,-0.704096257686615,0.7344133853912354
1772469524470374700,7.000374755859375,0.3591928482055664,-0.3909555673599243,1.1774755716323853
1772469524480381700,7.010381591796875,0.18983125686645508,0.15181958675384521,1.3953626155853271
1772469524490388700,7.020388671875,-0.0012028012424707413,0.6581475734710693,1.46477472782135
1772469524500395500,7.0303955078125,-0.15755246579647064,0.931415319442749,1.574684500694275
1772469524510403600,7.040403564453125,-0.28660672903060913,0.7542107105255127,1.9127228260040283
1772469524520410600,7.05041064453125,-0.4801064133644104,0.3861865997314453,2.4913711547851562
1772469524530417700,7.060417724609375,-0.7055648565292358,0.08833026140928268,3.100794792175293
1772469524540424700,7.0704248046875,-0.8812844753265381,-0.004407667089253664,3.5428826808929443
1772469524550431700,7.080431640625,-0.9720101952552795,0.11041469871997833,3.804933547973633
1772469524560438500,7.0904384765625,-0.9116533994674683,0.49876323342323303,3.8005404472351074
1772469524570445600,7.100445556640625,-0.791811466217041,0.7479509711265564,3.7026212215423584
1772469524580453600,7.11045361328125,-0.7343380451202393,0.7112022638320923,3.539398193359375
1772469524590460400,7.12046044921875,-0.8171047568321228,0.4728623032569885,3.399078369140625
1772469524600467700,7.1304677734375,-0.8813337683677673,0.3507683575153351,3.2319157123565674
1772469524610474500,7.140474609375,-0.7698614001274109,0.5999274849891663,2.9704856872558594
1772469524620481800,7.150481689453125,-0.5523080825805664,0.8736006021499634,2.7298190593719482
1772469524630488600,7.160488525390625,-0.4832104444503784,1.3314188718795776,2.654768705368042
1772469524640495600,7.17049560546875,-0.30338555574417114,1.09368896484375,2.609853506088257
1772469524650503700,7.180503662109375,-0.28197547793388367,0.7847934365272522,2.975778341293335
1772469524660510500,7.190510498046875,-0.4598861038684845,-0.07867638766765594,3.311957597732544
1772469524670517800,7.200517822265625,-0.6146144866943359,-0.6158714890480042,3.3863847255706787
1772469524680524500,7.210524658203125,-0.6648656725883484,-0.7540807723999023,3.146588087081909
1772469524690531800,7.22053173828125,-0.5614688992500305,-0.6598750948905945,2.7123782634735107
1772469524700538600,7.23053857421875,-0.3235013484954834,-0.36877453327178955,2.186387062072754
1772469524710545700,7.240545654296875,-0.0743485614657402,-0.07412656396627426,1.6788878440856934
1772469524720553700,7.2505537109375,0.11651406437158585,0.1612156480550766,1.246219277381897
1772469524730560500,7.260560546875,0.22210989892482758,0.3291054964065552,0.933903694152832
1772469524740567800,7.27056787109375,0.24415715038776398,0.43653208017349243,0.647223949432373
1772469524750574600,7.28057470703125,0.2151837795972824,0.5955199599266052,0.24351930618286133
1772469524760581600,7.29058154296875,0.17042270302772522,0.7174924612045288,-0.2474437654018402
1772469524770588700,7.300588623046875,0.12840299308300018,0.8106201887130737,-0.7226212620735168
1772469524780595500,7.310595458984375,0.11777538061141968,0.7622590661048889,-1.1685550212860107
1772469524790603500,7.320603515625,0.15683023631572723,0.5196333527565002,-1.596750020980835
1772469524800610600,7.330610595703125,0.19627751410007477,0.20953302085399628,-2.0171544551849365
1772469524810617600,7.34061767578125,0.18391373753547668,-0.12063360959291458,-2.48946475982666
1772469524820624600,7.350624755859375,0.1780492067337036,-0.2936061918735504,-2.954864025115967
1772469524830631700,7.360631591796875,0.21066021919250488,-0.2992008626461029,-3.3084604740142822
1772469524840638700,7.370638671875,0.24519982933998108,-0.2490072101354599,-3.52215313911438
1772469524850645500,7.3806455078125,0.29102250933647156,-0.32709383964538574,-3.668893337249756
1772469524860653600,7.390653564453125,0.374523788690567,-0.44569480419158936,-3.844954252243042
1772469524870660600,7.40066064453125,0.46832066774368286,-0.4362066388130188,-4.0255126953125
1772469524880667600,7.410667724609375,0.528390645980835,-0.3718111515045166,-4.091711521148682
1772469524890674700,7.4206748046875,0.5074210166931152,-0.5065835118293762,-4.0663909912109375
1772469524900681700,7.430681640625,0.4591064751148224,-0.6645880937576294,-4.143757343292236
1772469524910688500,7.4406884765625,0.4781591296195984,-0.594243049621582,-4.475776672363281
1772469524920695600,7.450695556640625,0.661994218826294,-0.2006036341190338,-5.190348148345947
1772469524930703600,7.46070361328125,1.0255895853042603,0.7872378826141357,-6.353734493255615
1772469524940710700,7.470710693359375,1.3324371576309204,2.0028560161590576,-7.5330681800842285
1772469524950717700,7.4807177734375,1.3904130458831787,2.6382691860198975,-7.4250168800354
1772469524960724500,7.490724365234375,1.005993127822876,2.288740634918213,-5.470758438110352
1772469524970731800,7.500731689453125,0.34748101234436035,0.9788984656333923,-2.4512834548950195
1772469524980738600,7.510738525390625,-0.2758012115955353,-0.6249628663063049,0.2623448669910431
1772469524990745600,7.52074560546875,-0.6038597226142883,-1.598806381225586,1.8805670738220215
1772469525000753700,7.530753662109375,-0.596923828125,-1.7624655961990356,2.732480764389038
1772469525010760400,7.540760498046875,-0.42705413699150085,-1.3069781064987183,3.1725244522094727
1772469525020767700,7.550767822265625,-0.2734273076057434,-0.6716374158859253,3.2454640865325928
1772469525030774500,7.5607744140625,-0.22534145414829254,-0.1632704734802246,3.09483003616333
1772469525040781800,7.57078173828125,-0.23132717609405518,0.23474907875061035,2.942946434020996
1772469525050788600,7.58078857421875,-0.2747381627559662,0.4172302186489105,2.8143985271453857
1772469525060795600,7.590795654296875,-0.3157590925693512,0.4111044108867645,2.6577322483062744
1772469525070803700,7.6008037109375,-0.3107350766658783,0.3327809274196625,2.561584711074829
1772469525080810500,7.610810546875,-0.2545250654220581,0.2986477315425873,2.6385371685028076
1772469525090817800,7.62081787109375,-0.19662871956825256,0.2887367010116577,2.847046375274658
1772469525100824600,7.630824462890625,-0.1500931680202484,0.21057289838790894,3.1402156352996826
1772469525110831600,7.64083154296875,-0.10541828721761703,0.08090846985578537,3.445826292037964
1772469525120838700,7.650838623046875,-0.06740938127040863,-0.02145491912961006,3.67136287689209
1772469525130845700,7.660845703125,-0.006638226564973593,0.01584860309958458,3.7572052478790283
1772469525140853800,7.670853759765625,0.04578743129968643,0.06287603825330734,3.6900603771209717
1772469525150860800,7.68086083984375,0.03325734660029411,0.09544312208890915,3.5585906505584717
1772469525160867800,7.690867919921875,-0.009389715269207954,0.09370700269937515,3.4026641845703125
1772469525170875000,7.700875,-0.0426379069685936,0.11072611063718796,3.2046401500701904
1772469525180882000,7.7108818359375,-0.05234858766198158,0.15477266907691956,2.983325719833374
1772469525190889000,7.720888916015625,-0.041421014815568924,0.20585164427757263,2.7763309478759766
1772469525200897000,7.73089697265625,0.004709460772573948,0.282446026802063,2.567448139190674
1772469525210903800,7.74090380859375,0.034917429089546204,0.358174592256546,2.360267162322998
1772469525220910800,7.750910888671875,0.05867921561002731,0.41464054584503174,2.183601140975952
1772469525230918000,7.76091796875,0.04129130765795708,0.5065163969993591,1.9699642658233643
1772469525240925000,7.770925048828125,0.006433192640542984,0.5925929546356201,1.7057225704193115
1772469525250932000,7.780931884765625,-0.025151317939162254,0.6089358925819397,1.3450795412063599
1772469525260939000,7.79093896484375,-0.027908489108085632,0.5662190914154053,0.8709993362426758
1772469525270947000,7.800947021484375,-0.04091772437095642,0.5119346976280212,0.32349175214767456
1772469525280953900,7.810953857421875,-0.0580141507089138,0.4564498960971832,-0.20952792465686798
1772469525290961000,7.8209609375,-0.08292251825332642,0.4092455208301544,-0.6870875954627991
1772469525300968000,7.830968017578125,-0.12178735435009003,0.3639576733112335,-1.092456340789795
1772469525310974700,7.840974609375,-0.1482246071100235,0.2722310423851013,-1.4309557676315308
1772469525320982000,7.85098193359375,-0.14798252284526825,0.194408118724823,-1.7548680305480957
1772469525330988800,7.86098876953125,-0.11881820112466812,0.18572480976581573,-2.077731132507324
1772469525340996900,7.870996826171875,-0.0615791454911232,0.20861254632472992,-2.3749756813049316
1772469525351004000,7.88100390625,0.018574057146906853,0.24386924505233765,-2.613727331161499
1772469525361010700,7.8910107421875,0.10630417615175247,0.26838499307632446,-2.7680323123931885
1772469525371018000,7.90101806640625,0.17281222343444824,0.20693546533584595,-2.874652862548828
1772469525381024800,7.911024658203125,0.2363046407699585,0.09364087134599686,-2.9794037342071533
1772469525391032000,7.921031982421875,0.2750282883644104,-0.03326479345560074,-3.058034896850586
1772469525401038800,7.931038818359375,0.24362216889858246,-0.25109726190567017,-3.008150577545166
1772469525411047000,7.941046875,0.17998053133487701,-0.6228320002555847,-2.834137439727783
1772469525421054000,7.951053955078125,0.19026991724967957,-1.0549241304397583,-2.6513888835906982
1772469525431060700,7.961060791015625,0.3022318184375763,-1.298748254776001,-2.7406444549560547
1772469525441068000,7.971068115234375,0.5016322731971741,-1.1825518608093262,-3.223872661590576
1772469525451074800,7.98107470703125,0.7386674284934998,-0.9758954644203186,-4.034106254577637
1772469525461081900,7.991081787109375,0.9632113575935364,-0.5117336511611938,-4.972061634063721
1772469525471089000,8.0010888671875,1.111640214920044,0.25609290599823,-5.6372809410095215
1772469525481097000,8.011096923828125,1.0955150127410889,0.8383679986000061,-5.377041339874268
1772469525491104000,8.02110400390625,0.9422750473022461,0.7613292932510376,-3.970278024673462
1772469525501110800,8.03111083984375,0.6896177530288696,0.2283385843038559,-1.9566835165023804
1772469525511117800,8.041117919921875,0.4441661536693573,-0.24788592755794525,-0.3203842341899872
1772469525521124900,8.051124755859375,0.2998957931995392,-0.49480918049812317,0.7617028951644897
1772469525531132000,8.0611318359375,0.1949528604745865,-0.6113579273223877,1.6538748741149902
1772469525541139000,8.071138916015625,0.18844355642795563,-0.5988737940788269,2.3991472721099854
1772469525551147000,8.08114697265625,0.21669486165046692,-0.5065094232559204,3.007586717605591
1772469525561153800,8.09115380859375,0.19184677302837372,-0.42118120193481445,3.381613254547119
1772469525571160800,8.101160888671876,0.09222497045993805,-0.37223386764526367,3.522475481033325
1772469525581167900,8.11116796875,-0.03183571994304657,-0.2853751480579376,3.476155996322632
1772469525591175000,8.1211748046875,-0.12996478378772736,-0.08100079745054245,3.2613134384155273
1772469525601182000,8.131181884765626,-0.17023150622844696,0.20787201821804047,2.941714286804199
1772469525611189000,8.14118896484375,-0.22762484848499298,0.39104440808296204,2.626398801803589
1772469525621197000,8.151197021484375,-0.284392774105072,0.43686941266059875,2.436814546585083
1772469525631203800,8.161203857421874,-0.29152432084083557,0.37464359402656555,2.381159543991089
1772469525641211000,8.1712109375,-0.24875769019126892,0.2696777582168579,2.422057628631592
1772469525651218000,8.181218017578125,-0.16180579364299774,0.17563363909721375,2.4415392875671387
1772469525661225000,8.191224853515624,-0.05740668252110481,0.13255035877227783,2.406338930130005
1772469525671232000,8.20123193359375,0.05153444781899452,0.09583868086338043,2.363307476043701
1772469525681238800,8.21123876953125,0.13532067835330963,0.014349419623613358,2.3203272819519043
1772469525691247000,8.2212470703125,0.1753852814435959,-0.07869423925876617,2.291661262512207
1772469525701254000,8.23125390625,0.1946503221988678,-0.21605582535266876,2.3004651069641113
1772469525711260700,8.2412607421875,0.1693592071533203,-0.3594265580177307,2.2571887969970703
1772469525721268000,8.25126806640625,0.1675163060426712,-0.3312351405620575,2.101717233657837
1772469525731274800,8.261274658203124,0.21014618873596191,-0.22844113409519196,1.8400206565856934
1772469525741282000,8.271281982421876,0.2759755551815033,-0.03565063327550888,1.634642481803894
1772469525751288800,8.281288818359375,0.33167406916618347,0.1467633843421936,1.4336515665054321
1772469525761297000,8.291296875,0.35055163502693176,0.26914548873901367,1.2472939491271973
1772469525771304000,8.301303955078126,0.3553358316421509,0.36647266149520874,1.066351056098938
1772469525781310700,8.311310791015625,0.30892571806907654,0.34872162342071533,0.9230442047119141
1772469525791318000,8.321318115234375,0.2444506287574768,0.2967236042022705,0.8190460801124573
1772469525801324800,8.33132470703125,0.1906321495771408,0.18489398062229156,0.72755366563797
1772469525811332000,8.34133203125,0.14989158511161804,0.06827186793088913,0.6255072355270386
1772469525821339000,8.3513388671875,0.11322732269763947,-0.08570358902215958,0.5053802728652954
1772469525831347000,8.361346923828124,0.08507980406284332,-0.23105643689632416,0.3024305999279022
1772469525841354000,8.37135400390625,0.09314465522766113,-0.194027841091156,-0.022018594667315483
1772469525851360800,8.38136083984375,0.12118595838546753,-0.05078697204589844,-0.47496625781059265
1772469525861368000,8.3913681640625,0.12437616288661957,0.06520221382379532,-1.017849326133728
1772469525871374800,8.401374755859376,0.1260325163602829,0.11147383600473404,-1.534691333770752
1772469525881382000,8.4113818359375,0.11983427405357361,0.12858064472675323,-1.945796012878418
1772469525891390000,8.421389892578125,0.11018294095993042,0.10514865070581436,-2.1979222297668457
1772469525901397000,8.43139697265625,0.11897803097963333,0.09975015372037888,-2.3043980598449707
1772469525911403800,8.44140380859375,0.1535932570695877,0.13357841968536377,-2.3232147693634033
1772469525921410800,8.451410888671875,0.21021099388599396,0.14748172461986542,-2.3061652183532715
1772469525931417900,8.46141796875,0.23400527238845825,0.04667522385716438,-2.2461743354797363
1772469525941425000,8.4714248046875,0.23367397487163544,-0.2077019363641739,-2.1626806259155273
1772469525951432000,8.481431884765625,0.23110415041446686,-0.4924015700817108,-2.192840814590454
1772469525961439700,8.491439697265625,0.21315258741378784,-0.736443281173706,-2.3906145095825195
1772469525971447000,8.501447021484376,0.23541603982448578,-0.8187042474746704,-2.7181899547576904
1772469525981453800,8.511453857421875,0.3052617013454437,-0.7152345776557922,-3.103234052658081
1772469525991460900,8.5214609375,0.4378644526004791,-0.5329157710075378,-3.5109472274780273
1772469526001468000,8.531468017578124,0.5819206833839417,-0.28513023257255554,-3.9141180515289307
1772469526011475000,8.541474853515625,0.6303693056106567,0.007685121148824692,-4.226953029632568
1772469526021482000,8.55148193359375,0.4984224736690521,0.18801574409008026,-4.451385974884033
1772469526031489800,8.56148974609375,0.2953674793243408,0.22010497748851776,-4.656013011932373
1772469526041497000,8.5714970703125,0.27512240409851074,0.24073754251003265,-4.728348731994629
1772469526051503900,8.58150390625,0.4729700982570648,0.38089627027511597,-4.519649982452393
1772469526061511000,8.591510986328124,0.6084669232368469,0.4640638530254364,-3.747040033340454
1772469526071518000,8.60151806640625,0.5568771362304688,0.39672306180000305,-2.214063882827759
1772469526081524700,8.611524658203125,0.45635509490966797,0.18023629486560822,-0.14403922855854034
1772469526091532000,8.621531982421875,0.11996609717607498,-0.15266406536102295,1.8078429698944092
1772469526101539800,8.631539794921874,-0.20320263504981995,-0.25065961480140686,3.0627174377441406
1772469526111547000,8.641546875,-0.3566926121711731,-0.18573857843875885,3.642265558242798
1772469526121554000,8.651553955078125,-0.36279579997062683,-0.07503443211317062,3.779749631881714
1772469526131560400,8.661560546875,-0.3758447468280792,0.09743693470954895,3.5979037284851074
1772469526141567500,8.6715673828125,-0.44349730014801025,0.2864513397216797,3.347733974456787
1772469526151574500,8.681574462890625,-0.523025393486023,0.46405860781669617,3.260632276535034
1772469526161581600,8.69158154296875,-0.5924252271652222,0.44992759823799133,3.3341453075408936
1772469526171589600,8.701589599609376,-0.6519283056259155,0.3132324516773224,3.4666695594787598
1772469526181596400,8.711596435546875,-0.6643533110618591,0.16441631317138672,3.5582826137542725
1772469526191603700,8.721603759765625,-0.6357218027114868,0.03343646973371506,3.599276065826416
1772469526201610500,8.731610595703126,-0.5459354519844055,-0.030554762110114098,3.611933469772339
1772469526211617500,8.741617431640625,-0.4340255856513977,0.018512200564146042,3.606623411178589
1772469526221624600,8.75162451171875,-0.35818302631378174,0.042653221637010574,3.5488171577453613
1772469526231631600,8.761631591796874,-0.2931986153125763,0.020211394876241684,3.4601705074310303
1772469526241639700,8.7716396484375,-0.21805620193481445,-0.012045610696077347,3.3409502506256104
1772469526251646500,8.781646484375,-0.14571352303028107,-0.012263815850019455,3.181415319442749
1772469526261653800,8.79165380859375,-0.11074647307395935,-0.00131209846585989,2.982227087020874
1772469526271660500,8.80166064453125,-0.08767977356910706,0.03209672495722771,2.760892391204834
1772469526281667600,8.81166748046875,-0.042611896991729736,0.1040998175740242,2.514754295349121
1772469526291674600,8.821674560546874,-0.024277668446302414,0.11943704634904861,2.208501100540161
1772469526301682400,8.831682373046876,-0.06648104637861252,0.0667828842997551,1.8504360914230347
1772469526311689700,8.841689697265625,-0.1561756432056427,-0.07713780552148819,1.4588468074798584
1772469526321696500,8.851696533203125,-0.23302116990089417,-0.17201344668865204,1.0356504917144775
1772469526331703600,8.86170361328125,-0.2672255039215088,-0.18073174357414246,0.524248480796814
1772469526341710600,8.871710693359375,-0.3009171485900879,-0.16913235187530518,-0.05052560940384865
1772469526351717400,8.88171728515625,-0.3012731969356537,-0.13904350996017456,-0.5828123688697815
1772469526361724700,8.891724609375,-0.26199209690093994,-0.11128777265548706,-0.9979246258735657
1772469526371732500,8.901732421875,-0.22185413539409637,-0.12184189260005951,-1.285414218902588
1772469526381739500,8.911739501953125,-0.19218066334724426,-0.12123043090105057,-1.4788241386413574
1772469526391746600,8.92174658203125,-0.1804865002632141,-0.09561285376548767,-1.6390175819396973
1772469526401753600,8.931753662109376,-0.1937096267938614,-0.08030234277248383,-1.7918663024902344
1772469526411760600,8.9417607421875,-0.22502289712429047,-0.06428112834692001,-1.9326339960098267
1772469526421767400,8.951767333984375,-0.24223250150680542,-0.03719944506883621,-2.0306613445281982
1772469526431774700,8.961774658203124,-0.22520683705806732,0.0023669698275625706,-2.0549564361572266
1772469526441782500,8.971782470703126,-0.15736892819404602,-0.003844587132334709,-2.00563383102417
1772469526451789600,8.98178955078125,-0.05528329685330391,-0.03221125155687332,-1.9137840270996094
1772469526461796600,8.991796630859374,0.042038463056087494,-0.02240016870200634,-1.8111093044281006
1772469526471803400,9.001803466796876,0.11945637315511703,0.05303369462490082,-1.6829215288162231
1772469526481810700,9.011810791015625,0.1823759377002716,0.07603062689304352,-1.5148653984069824
1772469526491817500,9.0218173828125,0.20626303553581238,-0.09079910814762115,-1.3802006244659424
1772469526501824500,9.031824462890626,0.18836632370948792,-0.3682189881801605,-1.402694821357727
1772469526511832600,9.04183251953125,0.165451779961586,-0.6125668883323669,-1.5992456674575806
1772469526521839600,9.051839599609375,0.1766895204782486,-0.7251120805740356,-1.91977059841156
1772469526531846400,9.061846435546874,0.23902204632759094,-0.5974330306053162,-2.341432809829712
1772469526541853400,9.071853515625,0.34898504614830017,-0.13428133726119995,-2.918515920639038
1772469526551860500,9.081860595703125,0.4182488024234772,0.5688959956169128,-3.5565333366394043
1772469526561867500,9.091867431640624,0.4601656198501587,1.103261947631836,-4.068279266357422
1772469526571875600,9.10187548828125,0.43513184785842896,1.0035535097122192,-4.2748847007751465
1772469526581882400,9.11188232421875,0.3609734773635864,0.2853999137878418,-4.167542457580566
1772469526591889700,9.1218896484375,0.3525541424751282,-0.6152675747871399,-3.867356777191162
1772469526601896400,9.131896484375,0.40028998255729675,-1.2886343002319336,-3.458244800567627
1772469526611903500,9.141903564453125,0.5016146302223206,-1.5499519109725952,-2.8026633262634277
1772469526621910500,9.15191064453125,0.5454283952713013,-1.2258551120758057,-1.7488881349563599
1772469526631917600,9.16191748046875,0.3530425429344177,-0.4477647840976715,-0.2726353108882904
1772469526641925600,9.171925537109376,-0.025947919115424156,0.15300814807415009,1.262955904006958
1772469526651932400,9.181932373046875,-0.35756516456604004,0.30070582032203674,2.4015519618988037
1772469526661939700,9.191939697265624,-0.521425724029541,0.15687860548496246,2.9789555072784424
1772469526671946500,9.201946533203126,-0.5469644069671631,-0.05393820255994797,3.0333471298217773
1772469526681953500,9.21195361328125,-0.5607452392578125,-0.07157579064369202,2.799689531326294
1772469526691960600,9.221960693359375,-0.576431155204773,0.18455195426940918,2.4415760040283203
1772469526701967400,9.23196728515625,-0.6288472414016724,0.4858470857143402,2.196190118789673
1772469526711975700,9.2419755859375,-0.6588291525840759,0.6677899360656738,2.2240638732910156
1772469526721982500,9.251982421875,-0.6453381180763245,0.7292777895927429,2.377300977706909
1772469526731989500,9.261989501953124,-0.6013076305389404,0.7283239960670471,2.564588785171509
1772469526741996500,9.27199658203125,-0.5298923254013062,0.6307937502861023,2.7920000553131104
1772469526752003300,9.28200341796875,-0.459006130695343,0.4257049262523651,3.032797336578369
1772469526762010600,9.2920107421875,-0.40514397621154785,0.22456593811511993,3.232011079788208
1772469526772018400,9.302018310546876,-0.3534471094608307,0.0764751136302948,3.3274996280670166
1772469526782025500,9.312025390625,-0.31787607073783875,0.0004967185668647289,3.2929575443267822
1772469526792032500,9.322032470703125,-0.29892697930336,-0.006214534863829613,3.181443929672241
1772469526802039600,9.33203955078125,-0.27788108587265015,-0.031154772266745567,3.0773744583129883
1772469526812046600,9.342046630859375,-0.28520309925079346,-0.03823895379900932,2.9830925464630127
1772469526822053400,9.352053466796875,-0.26492205262184143,-0.010728767141699791,2.8672637939453125
1772469526832060700,9.362060791015624,-0.22444969415664673,0.07671497017145157,2.6957530975341797
1772469526842068500,9.372068359375,-0.1804707795381546,0.2616954743862152,2.4619247913360596
1772469526852075500,9.382075439453125,-0.1522640436887741,0.48810598254203796,2.1669774055480957
1772469526862082600,9.39208251953125,-0.17220152914524078,0.6247348785400391,1.8846008777618408
1772469526872089600,9.402089599609376,-0.1808767467737198,0.625190258026123,1.6367690563201904
1772469526882096600,9.4120966796875,-0.19583119451999664,0.5529530644416809,1.3935725688934326
1772469526892103400,9.422103515625,-0.195731982588768,0.45428666472435,1.1409800052642822
1772469526902110500,9.4321103515625,-0.17522484064102173,0.33666789531707764,0.8380739092826843
1772469526912118500,9.442118408203125,-0.12937834858894348,0.2201491743326187,0.458528608083725
1772469526922125600,9.45212548828125,-0.0794328898191452,0.10285770893096924,-0.012928135693073273
1772469526932132600,9.462132568359374,-0.021108638495206833,-0.007240743841975927,-0.5675643682479858
1772469526942139600,9.4721396484375,0.02048088237643242,-0.12155479937791824,-1.1118897199630737
1772469526952146400,9.482146484375,0.05701185762882233,-0.2155555933713913,-1.5791821479797363
1772469526962153500,9.492153564453124,0.0807371586561203,-0.24752125144004822,-1.9733309745788574
1772469526972160500,9.502160400390625,0.09649646282196045,-0.1821463257074356,-2.2795708179473877
1772469526982168300,9.512168212890625,0.15169472992420197,-0.07363370060920715,-2.4414970874786377
1772469526992175600,9.522175537109375,0.20685994625091553,0.023808784782886505,-2.4721758365631104
1772469527002182400,9.532182373046876,0.23634326457977295,-0.011264778673648834,-2.4066505432128906
1772469527012189700,9.542189697265625,0.2283935844898224,-0.14752860367298126,-2.311718225479126
1772469527022196500,9.552196533203125,0.21874895691871643,-0.34509390592575073,-2.209833860397339
1772469527032203500,9.56220361328125,0.2114557921886444,-0.5695462226867676,-2.089620590209961
1772469527042211600,9.572211669921876,0.22124610841274261,-0.7896844744682312,-1.9693431854248047
1772469527052218400,9.58221826171875,0.2631738483905792,-0.9721727967262268,-1.9260518550872803
1772469527062225700,9.5922255859375,0.3367260992527008,-1.0360561609268188,-2.0588278770446777
1772469527072232400,9.602232421875,0.4047248661518097,-0.8979156017303467,-2.4072251319885254
1772469527082239700,9.61223974609375,0.46291279792785645,-0.5160753130912781,-2.9224460124969482
1772469527092246500,9.62224658203125,0.4925982654094696,0.0635388046503067,-3.388589859008789
1772469527102253300,9.63225341796875,0.46101370453834534,0.6367759704589844,-3.608164072036743
1772469527112261600,9.64226171875,0.32456931471824646,1.0715428590774536,-3.3656997680664062
1772469527122268400,9.652268310546875,0.21244117617607117,1.0922561883926392,-2.6339080333709717
1772469527132275500,9.662275390625,0.0954524576663971,0.6056029200553894,-1.7918139696121216
1772469527142282500,9.672282470703125,-0.020691191777586937,-0.007346466649323702,-1.2556812763214111
1772469527152289300,9.682289306640625,-0.07840517163276672,-0.38731998205184937,-0.958530604839325
1772469527162296300,9.69229638671875,-0.062230199575424194,-0.4679461121559143,-0.6780930757522583
1772469527172303400,9.702303466796875,-0.003625032491981983,-0.4115665555000305,-0.33081603050231934
1772469527182311400,9.7123115234375,0.04849223047494888,-0.3286722004413605,0.08333720266819
1772469527192318500,9.722318359375,0.041108354926109314,-0.2578483521938324,0.5170157551765442
1772469527202325200,9.7323251953125,-0.019974444061517715,-0.27574560046195984,0.9717457294464111
1772469527212332500,9.74233251953125,-0.1057748794555664,-0.34964263439178467,1.3603425025939941
1772469527222339300,9.75233935546875,-0.1686185598373413,-0.4290336072444916,1.5744061470031738
1772469527232346400,9.762346435546876,-0.19766202569007874,-0.46267926692962646,1.5941526889801025
1772469527242354400,9.7723544921875,-0.18742269277572632,-0.39694127440452576,1.4630640745162964
1772469527252361200,9.782361328125,-0.15627716481685638,-0.2744550406932831,1.2521896362304688
1772469527262368500,9.792368408203124,-0.11480721086263657,-0.14131323993206024,1.046891689300537
1772469527272375300,9.802375244140626,-0.05969659611582756,0.009143197908997536,0.9056059718132019
1772469527282382600,9.812382568359375,-0.016453254967927933,0.1742354929447174,0.7643673419952393
1772469527292389400,9.822389404296874,-0.017774807289242744,0.3881594240665436,0.6386878490447998
1772469527302396400,9.832396484375,-0.04324527829885483,0.5097111463546753,0.5734140276908875
1772469527312404500,9.842404541015625,-0.06040291115641594,0.534416913986206,0.5657529234886169
1772469527322411300,9.852411376953125,-0.0853348895907402,0.46194326877593994,0.567099392414093
1772469527332418600,9.86241845703125,-0.10710769891738892,0.2954658567905426,0.5969310402870178
1772469527342425300,9.87242529296875,-0.11873692274093628,0.1302553415298462,0.6666331887245178
1772469527352432400,9.882432373046875,-0.12484026700258255,-0.007515756879001856,0.7707971334457397
1772469527362439400,9.892439453125,-0.10013146698474884,-0.06660224497318268,0.914158821105957
1772469527372447500,9.902447509765626,-0.06020428240299225,-0.03382326662540436,1.0637869834899902
1772469527382454300,9.912454345703125,-0.02785566635429859,0.08130278438329697,1.205853819847107
1772469527392461300,9.92246142578125,-0.03073592111468315,0.1935306191444397,1.3502485752105713
1772469527402468400,9.93246826171875,-0.057112403213977814,0.23988479375839233,1.4559338092803955
1772469527412475400,9.942475341796875,-0.07375285029411316,0.23919177055358887,1.4906593561172485
1772469527422482400,9.952482421875,-0.08364809304475784,0.2756786644458771,1.419387936592102
1772469527432489500,9.962489501953126,-0.08856996893882751,0.21889573335647583,1.2817277908325195
1772469527442497500,9.97249755859375,-0.12200941890478134,0.032588161528110504,1.0834487676620483
1772469527452504300,9.98250439453125,-0.15010817348957062,-0.16830313205718994,0.8320314288139343
1772469527462511400,9.992511474609374,-0.17411044239997864,-0.30300742387771606,0.5587777495384216
1772469527472518400,10.002518310546876,-0.19011160731315613,-0.3697758615016937,0.27933719754219055
1772469527482525400,10.012525390625,-0.18059159815311432,-0.34609317779541016,-0.034433513879776
1772469527492532500,10.022532470703124,-0.11876937001943588,-0.17484739422798157,-0.39856094121932983
1772469527502539500,10.03253955078125,-0.028406986966729164,0.14873170852661133,-0.7418330907821655
1772469527512547600,10.042547607421875,0.047701139003038406,0.48378872871398926,-0.8070386648178101
1772469527522554400,10.052554443359375,0.0713324323296547,0.570099949836731,-0.9336006045341492
1772469527532561400,10.0625615234375,0.03454810008406639,0.6128888130187988,-0.9599703550338745
1772469527542568400,10.072568359375,-0.009400450624525547,0.4763333797454834,-0.8822385668754578
1772469527552575200,10.0825751953125,-0.007887419313192368,0.28164762258529663,-0.7378295063972473
1772469527562582500,10.09258251953125,0.02043716236948967,0.05704884976148605,-0.600294828414917
1772469527572590300,10.10259033203125,0.07776480913162231,-0.144090473651886,-0.5074429512023926
1772469527582597400,10.112597412109375,0.12880587577819824,-0.30353283882141113,-0.49041467905044556
1772469527592604400,10.1226044921875,0.2150956392288208,-0.4058097004890442,-0.528582751750946
1772469527602611200,10.132611083984376,0.3094460964202881,-0.378887802362442,-0.6166079640388489
1772469527612618500,10.142618408203125,0.47834232449531555,-0.2769949734210968,-1.0318039655685425
1772469527622625300,10.152625244140625,0.6293137073516846,0.25448355078697205,-1.8295485973358154
1772469527632633300,10.16263330078125,0.7573220133781433,0.7434518933296204,-2.7519822120666504
1772469527642640400,10.172640380859375,0.8101301193237305,1.1905378103256226,-3.392788887023926
1772469527652647400,10.1826474609375,0.6298043727874756,1.264570713043213,-3.442326307296753
1772469527662654500,10.192654541015624,0.5533791184425354,0.65598064661026,-2.814770460128784
1772469527672661200,10.2026611328125,0.38184037804603577,-0.29686233401298523,-1.947527289390564
1772469527682668500,10.21266845703125,0.49205130338668823,-0.847940981388092,-1.3780877590179443
1772469527692675300,10.22267529296875,0.41392982006073,-0.9253291487693787,-1.1871243715286255
1772469527702683400,10.232683349609376,0.5379378199577332,-0.6355138421058655,-1.0129754543304443
1772469527712690400,10.2426904296875,0.4132536053657532,-0.20094843208789825,-0.6406581401824951
1772469527722697500,10.252697509765625,0.4310999810695648,0.2328309714794159,0.009930516593158245
1772469527732704500,10.26270458984375,0.2255122810602188,0.45969724655151367,0.7945358157157898
1772469527742711300,10.272711181640625,0.3209748864173889,0.4550236463546753,1.5030369758605957
1772469527752718300,10.28271826171875,0.22508293390274048,0.30741190910339355,1.9762693643569946
1772469527762725400,10.292725341796874,0.3434703052043915,0.18878673017024994,2.2054855823516846
1772469527772733400,10.3027333984375,0.27608856558799744,0.15210124850273132,2.194859266281128
1772469527782740500,10.312740478515625,0.25987282395362854,0.134083092212677,2.0744917392730713
1772469527792747300,10.322747314453125,0.18785952031612396,0.1521485596895218,1.9091774225234985
1772469527802754300,10.33275439453125,0.10105672478675842,0.2249780297279358,1.7500710487365723
1772469527812761300,10.34276123046875,0.007958609610795975,0.31188470125198364,1.66032874584198
1772469527822768400,10.352768310546875,-0.045287832617759705,0.373720645904541,1.6359187364578247
1772469527832776200,10.362776123046874,-0.021453209221363068,0.4320276379585266,1.6262061595916748
1772469527842783500,10.372783447265626,0.013057895004749298,0.3579113185405731,1.637470006942749
1772469527852790300,10.382790283203125,-0.06869896501302719,0.11363222450017929,1.7273623943328857
1772469527862797300,10.39279736328125,0.01735362783074379,-0.16284117102622986,1.8667572736740112
1772469527872804400,10.402804443359376,-0.09629526734352112,-0.3956207036972046,2.0271377563476562
1772469527882811400,10.412811279296875,0.030383579432964325,-0.6467211246490479,2.1694223880767822
1772469527892819500,10.4228193359375,-0.09225991368293762,-0.9137360453605652,2.2676339149475098
1772469527902826200,10.432826171875,0.05844490975141525,-1.0347343683242798,2.2954022884368896
1772469527912833500,10.44283349609375,-0.08431153744459152,-1.0160810947418213,2.160008430480957
1772469527922840300,10.45284033203125,-0.05295414477586746,-0.7696498036384583,1.8987900018692017
1772469527932847400,10.462847412109374,-0.26854196190834045,-0.31167954206466675,1.4735002517700195
1772469527942854400,10.4728544921875,-0.23416002094745636,0.17730584740638733,1.0082247257232666
1772469527952861200,10.482861083984375,-0.42177554965019226,0.45189523696899414,0.6799161434173584
1772469527962869500,10.492869384765624,-0.3130415976047516,0.49847257137298584,0.5310496687889099
1772469527972876300,10.502876220703126,-0.3419409394264221,0.39859962463378906,0.5515749454498291
1772469527982883300,10.51288330078125,-0.27508974075317383,0.20882728695869446,0.6336514353752136
1772469527992890400,10.522890380859375,-0.280967652797699,0.025136636570096016,0.6608368158340454
1772469528002897200,10.532897216796876,-0.3584131598472595,-0.15302777290344238,0.5428323745727539
1772469528012904400,10.542904541015625,-0.4607498347759247,-0.3011676073074341,0.3020712435245514
1772469528022912300,10.552912353515625,-0.5559016466140747,-0.3366395831108093,0.05305716395378113
1772469528032919300,10.562919189453124,-0.5643946528434753,-0.25971710681915283,-0.15148469805717468
1772469528042926300,10.57292626953125,-0.5368711352348328,-0.25675860047340393,-0.3000076115131378
1772469528052933400,10.582933349609375,-0.703151524066925,-0.25077617168426514,-0.3953914940357208
1772469528062940400,10.5929404296875,-0.563960611820221,-0.1244691014289856,-0.48305290937423706
1772469528072947200,10.602947265625,-0.6572660207748413,-0.03023163601756096,-0.5667014122009277
1772469528082955300,10.612955322265625,-0.473264217376709,-0.04154101386666298,-0.5707600712776184
1772469528092962300,10.62296240234375,-0.5123381018638611,-0.08915247768163681,-0.48877084255218506
1772469528102969300,10.63296923828125,-0.2737915813922882,-0.1519325077533722,-0.4151051640510559
1772469528112976400,10.642976318359375,-0.368584007024765,-0.25585755705833435,-0.5140222907066345
1772469528122983400,10.6529833984375,-0.2252737134695053,-0.28661733865737915,-0.8663942217826843
1772469528132990500,10.662990478515624,-0.29174700379371643,-0.19585229456424713,-1.4952865839004517
1772469528142998300,10.672998291015626,-0.024515045806765556,0.15936492383480072,-2.344536781311035
1772469528153006300,10.68300634765625,-0.09746754914522171,0.8103834390640259,-3.1230242252349854
1772469528163013000,10.69301318359375,-0.006459611468017101,1.494858980178833,-3.2896409034729004
1772469528173020400,10.7030205078125,-0.20403367280960083,1.8514902591705322,-2.7298648357391357
1772469528183027200,10.713027099609375,-0.2791332006454468,1.6436588764190674,-1.7109655141830444
1772469528193034200,10.7230341796875,-0.36792901158332825,0.9803594350814819,-0.8642597794532776
1772469528203041300,10.733041259765624,-0.3327222764492035,0.38076603412628174,-0.5012474656105042
1772469528213049000,10.743049072265626,-0.20113003253936768,0.023602832108736038,-0.46149465441703796
1772469528223056400,10.753056396484375,-0.009136619046330452,-0.10780845582485199,-0.45613688230514526
1772469528233063200,10.763063232421874,0.1758541762828827,-0.07645726948976517,-0.41913044452667236
1772469528243070500,10.773070556640626,0.35337358713150024,0.08141917735338211,-0.2975398302078247
1772469528253077200,10.7830771484375,0.28186658024787903,0.2032165229320526,-0.10608106851577759
1772469528263084300,10.793084228515625,0.3294287621974945,0.13701434433460236,0.07752364873886108
1772469528273092400,10.80309228515625,0.08262614160776138,-0.04064370319247246,0.1587865650653839
1772469528283099100,10.81309912109375,0.11235634237527847,-0.16971246898174286,0.17969238758087158
1772469528293106400,10.8231064453125,-0.1752462387084961,-0.28319862484931946,0.16596047580242157
1772469528303113200,10.83311328125,-0.09302034229040146,-0.3829968571662903,0.188828244805336
1772469528313120300,10.843120361328126,-0.2191338986158371,-0.5054669380187988,0.26830175518989563
1772469528323127300,10.853127197265625,-0.08961877226829529,-0.6397230625152588,0.43140703439712524
1772469528333135400,10.86313525390625,-0.26541784405708313,-0.6986695528030396,0.616888165473938
1772469528343142100,10.87314208984375,-0.11473672837018967,-0.7468202710151672,0.8113695383071899
1772469528353149200,10.883149169921875,-0.3337666690349579,-0.7800562381744385,0.9510555863380432
1772469528363156200,10.89315625,-0.3201904296875,-0.7243115305900574,1.0592153072357178
1772469528373163300,10.903163330078126,-0.5272367000579834,-0.6087341904640198,1.0966171026229858
1772469528383170300,10.91317041015625,-0.47538578510284424,-0.5371979475021362,1.044677734375
1772469528393177300,10.92317724609375,-0.3552204966545105,-0.46605750918388367,0.9992856383323669
1772469528403185400,10.933185302734374,-0.23170627653598785,-0.42032623291015625,1.0185518264770508
1772469528413192200,10.943192138671876,-0.12845370173454285,-0.4904170632362366,1.1423672437667847
1772469528423199200,10.95319921875,-0.10000260919332504,-0.7024382948875427,1.3380917310714722
1772469528433206300,10.963206298828124,-0.045113883912563324,-1.015558123588562,1.5610288381576538
1772469528443213300,10.97321337890625,0.06232042983174324,-1.2805147171020508,1.6973055601119995
1772469528453220400,10.983220458984375,0.002430953085422516,-1.2653769254684448,1.6708530187606812
1772469528463228200,10.993228271484375,0.2738981544971466,-1.1547633409500122,1.515756368637085
1772469528473235500,11.0032353515625,0.1281621903181076,-1.1500189304351807,1.3281357288360596
1772469528483242200,11.0132421875,0.1981591284275055,-1.1292004585266113,1.1411253213882446
1772469528493249300,11.023249267578125,-0.11115331202745438,-0.950745165348053,0.9917324185371399
1772469528503256300,11.03325634765625,0.032124489545822144,-0.6462699770927429,0.8184860944747925
1772469528513263000,11.04326318359375,-0.027553042396903038,-0.3156934678554535,0.6134865880012512
1772469528523270400,11.0532705078125,0.3308892548084259,-0.08289405703544617,0.41789790987968445
1772469528533278200,11.0632783203125,0.30711469054222107,-0.045092348009347916,0.3128567934036255
1772469528543285200,11.07328515625,0.539227306842804,-0.14458191394805908,0.35609349608421326
1772469528553292300,11.083292236328125,0.3131503462791443,-0.34192559123039246,0.4884428381919861
1772469528563299000,11.093299072265625,0.4078174829483032,-0.5624343156814575,0.6039894223213196
1772469528573306400,11.103306396484374,0.22439122200012207,-0.719440221786499,0.6431809663772583
1772469528583313200,11.113313232421875,0.19943739473819733,-0.7527968287467957,0.6115356683731079
1772469528593320400,11.123320556640625,0.14321056008338928,-0.7562538385391235,0.5385411381721497
1772469528603328300,11.133328369140624,0.12228638678789139,-0.7704703211784363,0.45162010192871094
1772469528613335300,11.143335205078126,0.17959170043468475,-0.7902761101722717,0.30728355050086975
1772469528623342300,11.15334228515625,0.3295375108718872,-0.7110255360603333,0.11938874423503876
1772469528633349000,11.16334912109375,0.48034799098968506,-0.5589923858642578,-0.0715847909450531
1772469528643356400,11.1733564453125,0.620212197303772,-0.40974992513656616,-0.20643740892410278
1772469528653363200,11.18336328125,0.5173877477645874,-0.3111657202243805,-0.27943187952041626
1772469528663371300,11.193371337890625,0.6217191815376282,-0.1602689027786255,-0.2795373201370239
1772469528673378300,11.20337841796875,0.34388279914855957,-0.09319914877414703,-0.2465781718492508
1772469528683385300,11.21338525390625,0.4181506633758545,-0.08566825836896896,-0.15315689146518707
1772469528693392400,11.223392333984375,0.17463120818138123,-0.1440732479095459,-0.11552774906158447
1772469528703399200,11.233399169921874,0.3630502223968506,-0.15291857719421387,-0.14187349379062653
1772469528713406200,11.24340625,0.23133093118667603,-0.11836699396371841,-0.26683351397514343
1772469528723413200,11.253413330078125,0.48522472381591797,-0.0428895503282547,-0.43966546654701233
1772469528733421300,11.26342138671875,0.34116116166114807,0.02233925275504589,-0.653864860534668
1772469528743428400,11.273428466796876,0.5228226184844971,0.029691975563764572,-0.8098036050796509
1772469528753435100,11.28343505859375,0.29588863253593445,0.02545408345758915,-0.8948026299476624
1772469528763442200,11.293442138671875,0.4476584494113922,0.008732626214623451,-0.8477970361709595
1772469528773449200,11.30344921875,0.32433077692985535,-0.00852944701910019,-0.7484646439552307
1772469528783456300,11.313456298828125,0.3340121805667877,0.005501150153577328,-0.5990932583808899
1772469528793463300,11.32346337890625,0.30106469988822937,-0.017950821667909622,-0.4062856435775757
1772469528803471400,11.333471435546874,0.27237311005592346,-0.0669628381729126,-0.19691167771816254
1772469528813478100,11.34347802734375,0.2323409765958786,-0.10438708961009979,-0.006964960601180792
1772469528823485200,11.353485107421875,0.16505834460258484,-0.13633862137794495,0.13751046359539032
1772469528833492200,11.3634921875,0.10920626670122147,-0.13564035296440125,0.20313438773155212
1772469528843499300,11.373499267578126,0.15187276899814606,-0.11309162527322769,0.19536620378494263
1772469528853506300,11.38350634765625,0.00203956151381135,-0.04804064333438873,0.10383740067481995
1772469528863513300,11.393513427734375,0.21049875020980835,0.13297441601753235,-0.135319784283638
1772469528873521400,11.403521484375,0.07491976022720337,0.42198145389556885,-0.3877589702606201
1772469528883528200,11.413528076171875,0.2941865921020508,0.5078412294387817,-0.47385576367378235
1772469528893535200,11.42353515625,0.1061486005783081,0.4426383376121521,-0.39614763855934143
1772469528903542300,11.433542236328124,0.2768037021160126,0.29378682374954224,-0.1757473647594452
1772469528913549300,11.44354931640625,0.07217404246330261,0.13218000531196594,0.08377216756343842
1772469528923556400,11.453556396484375,0.2574131488800049,-0.015868589282035828,0.28298062086105347
1772469528933563100,11.463563232421874,0.10180885344743729,-0.08299773931503296,0.33211544156074524
1772469528943571500,11.473571533203126,0.34628358483314514,-0.038204699754714966,0.2887730300426483
1772469528953578200,11.483578125,0.19126451015472412,0.07531049847602844,0.21429650485515594
1772469528963585000,11.4935849609375,0.3783470392227173,0.1381848156452179,0.1481103003025055
1772469528973592300,11.50359228515625,0.23018266260623932,0.21081684529781342,0.05945264920592308
1772469528983599000,11.51359912109375,0.22809021174907684,0.2943383753299713,-0.028635136783123016
1772469528993606400,11.5236064453125,0.2027209848165512,0.3838987946510315,-0.1212276890873909
1772469529003613200,11.53361328125,0.19928577542304993,0.4754638671875,-0.213841512799263
1772469529013621200,11.543621337890626,0.2143748551607132,0.5025156736373901,-0.2663499712944031
1772469529023628300,11.553628173828125,0.2086879312992096,0.43735775351524353,-0.25639215111732483
1772469529033635000,11.563635009765624,0.20399819314479828,0.34444573521614075,-0.22525151073932648
1772469529043642400,11.573642333984376,0.25676101446151733,0.30334144830703735,-0.19788940250873566
1772469529053649200,11.583649169921875,0.13794097304344177,0.3031947910785675,-0.18488258123397827
1772469529063656400,11.593656494140625,0.32487252354621887,0.31894686818122864,-0.1852828562259674
1772469529073663200,11.603663330078126,0.12962423264980316,0.3396379351615906,-0.22287233173847198
1772469529083671300,11.61367138671875,0.32289570569992065,0.3539111614227295,-0.28689926862716675
1772469529093678300,11.62367822265625,0.11710396409034729,0.40440061688423157,-0.36975350975990295
1772469529103685000,11.63368505859375,0.2765045464038849,0.4587775468826294,-0.4338640570640564
1772469529113692200,11.643692138671875,0.0642182007431984,0.5029775500297546,-0.4794737696647644
1772469529123699200,11.65369921875,0.2500791549682617,0.4960174262523651,-0.49342313408851624
1772469529133706200,11.663706298828124,0.05727444589138031,0.4639691412448883,-0.4965672194957733
1772469529143712300,11.673712158203125,0.25517475605010986,0.41324684023857117,-0.4691734313964844
1772469529153720000,11.683719970703125,0.05145731195807457,0.33694779872894287,-0.4549296498298645
1772469529163727400,11.693727294921874,0.24342355132102966,0.2666991949081421,-0.42628762125968933
1772469529173734100,11.703734130859376,0.13528446853160858,0.21176128089427948,-0.40324342250823975
1772469529183741400,11.713741455078125,0.16194351017475128,0.15191206336021423,-0.3843456208705902
1772469529193748200,11.723748291015625,0.15077878534793854,0.13181842863559723,-0.3887733519077301
1772469529203755300,11.73375537109375,0.1526789367198944,0.14340052008628845,-0.39774155616760254
1772469529213762300,11.74376220703125,0.14919042587280273,0.16832032799720764,-0.3909185528755188
1772469529223770000,11.75377001953125,0.15431807935237885,0.2017107754945755,-0.3978284001350403
1772469529233777400,11.76377734375,0.16163857281208038,0.2275455743074417,-0.4080389738082886
1772469529243784200,11.7737841796875,0.2321186065673828,0.2225092649459839,-0.42072492837905884
1772469529253791200,11.783791259765625,0.08263857662677765,0.21533285081386566,-0.4197808504104614
1772469529263798300,11.79379833984375,0.2885800302028656,0.21769560873508453,-0.3838728964328766
1772469529273805000,11.80380517578125,0.09885984659194946,0.1942867934703827,-0.30766430497169495
1772469529283812400,11.813812255859375,0.27128246426582336,0.12441342324018478,-0.20414166152477264
1772469529293820200,11.823820068359375,0.05489344894886017,0.05933801829814911,-0.10463219881057739
1772469529303827200,11.8338271484375,0.2143976092338562,0.02625143714249134,-0.021611874923110008
1772469529313834200,11.843834228515625,-0.02218002825975418,0.03287285193800926,0.011423397809267044
1772469529323841300,11.85384130859375,0.10448151081800461,0.064594566822052,-0.033048730343580246
1772469529333848300,11.863848388671874,-0.09438249468803406,0.11386658996343613,-0.1196293905377388
1772469529343855000,11.873855224609375,0.07985881716012955,0.11581762135028839,-0.11853297054767609
1772469529353862400,11.8838623046875,-0.1892833560705185,0.0921318307518959,-0.0975063145160675
1772469529363869200,11.893869140625,-0.06090860441327095,0.11450531333684921,-0.05081311613321304
