time,seconds_elapsed,z,y,x
1772470165025633300,0.15763330078125,0.0041740708142519,-0.19133622632622718,0.14963292758464813
1772470165035641300,0.167641357421875,-0.1905985597014427,-0.15783464647978543,0.1869882602497935
1772470165045649400,0.1776494140625,-0.43574002597331996,-0.175635091586411,0.2410796967256814
1772470165055657500,0.187657470703125,-0.6514905625879764,-0.2170133961573243,0.4057072912812233
1772470165065665500,0.19766552734375,-0.8187117538332939,-0.27475480650812384,0.3492044097494334
1772470165075673300,0.20767333984375,-0.48772506475448607,0.056389411219954486,0.069409234453924
1772470165085682400,0.217682373046875,0.21798457927703857,0.22129063508510588,-0.21479751020614057
1772470165095690500,0.2276904296875,0.7045522906899452,-0.16663550031185148,-0.5585984534768388
1772470165105698300,0.2376982421875,0.706033469158411,-0.4612333636701107,-1.02862525485754
1772470165115706400,0.247706298828125,1.0053291349440812,-0.8050327725708484,-1.598862306343019
1772470165125714400,0.25771435546875,1.657404803943634,-0.09898206001669167,-1.5845011880353093
1772470165135723300,0.26772314453125,2.6534628371953963,0.7952183577820658,-0.7089649925656616
1772470165145731300,0.2777314453125,3.13166194871366,0.48054333655685183,-0.5921238160576671
1772470165155739600,0.28773974609375,2.619861596366763,-0.6553641891509294,-0.7822170565854758
1772470165165747500,0.29774755859375,2.75765386403203,-0.5868816045552492,-0.768561894590035
1772470165175755500,0.307755615234375,3.547877774527669,-0.026272213114798066,-0.793120289524272
1772470165185763300,0.317763427734375,3.7224580963641403,-0.12370002942681312,-0.8261196189370006
1772470165195772400,0.3277724609375,3.0229473069727417,-0.47187546145468945,-0.5748077204018831
1772470165205780500,0.337780517578125,2.4788591344833373,-0.6086980073049664,-0.055480333551019424
1772470165215788300,0.347788330078125,2.6963328416287897,-1.0773267419233918,1.6287619161747395
1772470165225796400,0.35779638671875,3.4431577553808688,-1.6142919306650756,3.1179455580502746
1772470165235804700,0.3678046875,2.4944471642374992,-1.4847428829491138,4.773488659775257
1772470165245813200,0.377813232421875,0.6695785924643278,-1.1285405040711163,4.479406929245591
1772470165255821600,0.387821533203125,-0.67653089582026,-0.7920955495864153,2.894301053315401
1772470165265829400,0.397829345703125,-3.371229998767376,-0.08204349243640899,1.3650149720236657
1772470165275837400,0.40783740234375,-2.8420915581285953,0.6852543005019426,-0.5196648021116852
1772470165285845500,0.417845458984375,-2.735773456135392,1.1442393007233738,-1.574585358698666
1772470165295854300,0.427854248046875,-2.0139462055176494,1.109385721746087,-1.3906135236606
1772470165305862400,0.4378623046875,-1.3138695989370346,0.8019590642139315,-1.188957124980539
1772470165315870500,0.447870361328125,-1.2590215719401836,0.8595598970502615,-0.9630734630167483
1772470165325878300,0.457878173828125,-1.6593226202636957,0.6758163178101182,-0.8668679550413042
1772470165335886600,0.467886474609375,-2.154621335142851,0.44285131928324695,-1.0781165040615945
1772470165345894400,0.477894287109375,-2.7607904084920882,0.018711130210757255,-0.736511317269504
1772470165355903500,0.487903564453125,-3.2371266487479207,-0.22090163576751945,-0.17637283127643166
1772470165365911600,0.49791162109375,-2.9418782125264404,0.7130082766070962,-1.2140720578189939
1772470165375919400,0.50791943359375,-1.9154209493577479,0.8507780401796102,-2.133174788618833
1772470165385927400,0.517927490234375,-0.6129290690034628,0.326868440105021,-1.513112945125997
1772470165395935500,0.527935546875,0.5966863747328519,0.05850158106833696,-0.6271865077409893
1772470165405944300,0.5379443359375,1.1276806723713875,-0.3124795570075512,0.24322328462563453
1772470165415952400,0.547952392578125,1.1314946777015924,-0.6545724542513489,0.9021789223972707
1772470165425960400,0.55796044921875,0.7499065131545066,-0.902060483649373,1.5034519673332571
1772470165435968500,0.567968505859375,0.0750543642014265,-0.8724550344586371,1.9335846748188137
1772470165445976600,0.5779765625,-0.7033283018529415,-0.7207254268556833,2.0528201260522008
1772470165455985700,0.587985595703125,-1.1014175193458795,-0.485600912207365,1.8916103040508925
1772470165465993500,0.597993408203125,-0.9971972664147615,-0.33299072237759825,1.4941327887155114
1772470165476001500,0.60800146484375,-0.4462953222572803,-0.09153992731720209,0.9734073716349899
1772470165486009300,0.61800927734375,0.25479309171438214,0.025303660343587397,0.444511069189012
1772470165496017400,0.628017333984375,0.6682324385523796,0.020296061314642427,0.03659077803343534
1772470165506025500,0.638025390625,0.8121861514568328,-0.0047381344377994536,-0.18644713911041616
1772470165516034300,0.648034423828125,0.894039089757204,-0.06294511647373438,-0.27313115082904693
1772470165526042400,0.65804248046875,1.0138818592339753,-0.1102440432652831,-0.18498276564627886
1772470165536050400,0.668050537109375,1.0230261196762322,-0.10587678796648979,0.010017974536865948
1772470165546058500,0.67805859375,0.8360264612495899,-0.14478753338009118,0.13440715527161956
1772470165556066600,0.688066650390625,0.5069681098848581,-0.1899368809223175,0.11927300676479935
1772470165566075400,0.698075439453125,0.1385404556840658,-0.13545768723785875,0.026784984942525625
1772470165576083500,0.70808349609375,-0.09606792613565922,-0.039059506234526635,-0.04576134196072817
1772470165586091500,0.718091552734375,-0.15998305668532847,-0.02786854239553213,-0.11045359436273575
1772470165596099300,0.728099365234375,-0.16657061838209627,-0.010174188011884688,-0.13645283575505018
1772470165606107400,0.738107421875,-0.11753449253439903,-0.03537088084965944,-0.2128933936178684
1772470165616116500,0.748116455078125,0.07572481080889701,-0.08043693402260542,-0.2556745507240295
1772470165626124300,0.758124267578125,0.47838791208863257,-0.07598492304980754,-0.09746931736618279
1772470165636132400,0.76813232421875,1.8108920688688754,-0.13872224199175834,0.48991629118844865
1772470165646140400,0.778140380859375,1.9189117140829561,-0.40505350354760883,0.6083781277008354
1772470165656148500,0.7881484375,1.1145265917658804,-0.0468012064024806,0.07809899259433149
1772470165666157600,0.798157470703125,-0.2696002002239227,-0.13909341339170933,-0.12471549007967114
1772470165676165400,0.808165283203125,-1.328324240747094,-0.03979425024986267,-0.271104759567976
1772470165686173400,0.81817333984375,-1.3001765891492365,0.16474281843304633,-0.6401888318508863
1772470165696181500,0.828181396484375,-0.4359773418605327,0.09380465737879276,-0.599705722554028
1772470165706189300,0.838189208984375,0.6402648196965456,-0.013686872307956217,0.08554623986035585
1772470165716198400,0.848198486328125,1.426690506953001,-0.26065876887738704,0.30872414999678727
1772470165726206500,0.85820654296875,1.7443816611289977,-0.5562570414498448,0.48018341720327734
1772470165736214300,0.86821435546875,1.483858501330018,-0.694550536635518,0.7283687812156975
1772470165746222300,0.878222412109375,0.8169798154741525,-0.7326999422878027,0.5222840446993708
1772470165756230400,0.88823046875,0.15414719013869763,-0.8226850413784385,-0.022083383122831583
1772470165766239500,0.898239501953125,-0.608974778419733,-0.8828431574821471,-0.5877468430824577
1772470165776247300,0.908247314453125,-1.4783388611257076,-0.9299962460622191,-1.1184396735563873
1772470165786255400,0.91825537109375,-1.7402110974460838,-0.8309028346255422,-1.495550108167529
1772470165796263200,0.92826318359375,-1.0585387470841408,-0.7737558830365538,-1.4469463823877273
1772470165806271200,0.938271240234375,-0.1999707836806774,-0.9692767015710473,-0.7258966920137405
1772470165816280300,0.9482802734375,0.40623569906949997,-1.0891320382684468,0.26276450898498294
1772470165826288000,0.9582880859375,1.0010404978394507,-0.7751011601656674,0.6430554733283818
1772470165836296200,0.968296142578125,1.7302134350448846,-0.7700666731297969,0.008090951997041702
1772470165846304500,0.978304443359375,2.287554472339153,-0.7679130022272467,-1.394337074228376
1772470165856312300,0.988312255859375,2.895550176593661,-0.3800961724236607,-2.4713275699347257
1772470165866321400,0.9983212890625,3.0705168673992156,-0.9394722226768731,-1.831006928397715
1772470165876329500,1.00832958984375,2.2096225068747994,-1.8576915217056869,-0.5487120328977704
1772470165886337300,1.018337158203125,1.8514853605419397,-1.9206462827906012,0.8726012379962951
1772470165896345300,1.028345458984375,1.6579793889611958,-1.1718164589568971,2.893782290138304
1772470165906353200,1.038353271484375,0.595052636051178,-0.4975459092840552,4.7329982439547775
1772470165916362200,1.0483623046875,-0.39086043528318404,-0.28164544280469417,5.5693023531019685
1772470165926370300,1.058370361328125,-0.03455459603071213,-0.5254834252625703,4.897325467324257
1772470165936378400,1.06837841796875,-0.1142027177631855,-1.330791799904406,3.4606630169332027
1772470165946386400,1.078386474609375,0.737113667076826,-0.2849684497475624,3.1996140796944497
1772470165956394200,1.088394287109375,1.0302174924850462,-0.0711307610169053,2.581360893058777
1772470165966402300,1.09840234375,1.2829250100970266,-0.26555618553012605,1.899849870738387
1772470165976411400,1.108411376953125,1.528547537884116,-0.2378141921237111,1.2479133179485797
1772470165986419200,1.118419189453125,1.3890426210820674,-0.7744236992955207,0.1307837040774524
1772470165996427300,1.12842724609375,1.2117016023606062,-2.11114985768497,-1.9323428580641746
1772470166006435300,1.138435302734375,1.2332342197328805,-1.526490605354309,-2.819033338624239
1772470166016443100,1.148443115234375,0.07803834844827652,-0.7810610914833843,-2.8919764097601175
1772470166026452200,1.1584521484375,-1.2177619253128766,-0.9521166001945733,-2.611308287554979
1772470166036460300,1.168460205078125,-2.297717554435134,-1.1745227953061461,-1.9645888848915696
1772470166046468400,1.17846826171875,-3.3582781627357003,-1.3680379731066523,-1.6848942838937042
1772470166056476400,1.188476318359375,-3.495940082019567,-1.033709133993089,-1.375629158888012
1772470166066484200,1.198484130859375,-2.9029426249325274,-0.09262859933674335,-0.8546388072609901
1772470166076493300,1.208493408203125,-2.369467616394162,0.3742332717396319,-0.3382751290539279
1772470166086501400,1.21850146484375,-1.9379098445415495,0.05659735488221049,-0.400297906518355
1772470166096509200,1.22850927734375,-1.2611749505817889,-0.00042670097947120663,-1.1488855190940201
1772470166106517200,1.238517333984375,-0.6537474016040563,-0.126800771921128,-2.4306251187987624
1772470166116525300,1.248525390625,-1.2267676540672778,-0.8053760330505668,-3.2283696340575814
1772470166126534100,1.2585341796875,-0.8352543078333139,-0.4512658772114664,-2.648446762599051
1772470166136542200,1.268542236328125,0.3397702995151281,0.838820914273709,-1.7693794703938066
1772470166146550500,1.278550537109375,0.33490590834915634,0.9664778646327554,-1.6397770850554108
1772470166156558300,1.288558349609375,0.1390285314619541,0.4065646387629211,-1.1090327435899525
1772470166166566400,1.29856640625,0.20521511407494544,0.4020942884158343,-0.9390885571215302
1772470166176575500,1.308575439453125,0.7073299387097358,0.649988706657663,-0.9308665260907262
1772470166186583300,1.318583251953125,1.2315139718115329,0.2475630673956126,-0.5735188496351242
1772470166196591400,1.32859130859375,1.8543208762288093,0.16918204298950731,-0.632454292076081
1772470166206599200,1.33859912109375,2.5500667601287366,0.4975391142170876,-0.8164742040395736
1772470166216607200,1.348607177734375,3.4692192483544346,0.7493024828467517,-0.5324493552850559
1772470166226616300,1.3586162109375,4.57825308792293,1.199497735152021,0.07346545104216784
1772470166236624100,1.3686240234375,5.729604558739066,1.3319568981610237,0.43006592585965986
1772470166246632400,1.378632568359375,6.837776813042163,1.7369404052123427,0.637579014678672
1772470166256640300,1.38864013671875,7.947533121666312,2.0181515482529995,0.8475596626549958
1772470166266648300,1.3986484375,8.968924918138981,2.160788333339989,0.6666008187625557
1772470166276657400,1.408657470703125,9.655983637714385,2.6945687545657155,0.5630771697934717
1772470166286665200,1.418665283203125,10.099150598818063,3.3082696847245097,0.7130944205205887
1772470166296673300,1.42867333984375,10.287042822170257,3.535099833758175,1.3085792374439538
1772470166306681300,1.438681396484375,10.179785393500328,3.728087042161822,2.130350817239284
1772470166316690200,1.448690185546875,10.227657736265659,3.75112363435626,2.580765557514131
1772470166326698200,1.4586982421875,10.541793828308581,3.7059655189856886,2.756313555338979
1772470166336706300,1.468706298828125,10.555726492071152,3.3919317182734607,2.6673826414763924
1772470166346714400,1.47871435546875,10.267644878739118,2.8294878048822283,2.374189530349523
1772470166356722400,1.488722412109375,10.02931192343831,2.5577485468029972,2.214257473199069
1772470166366731500,1.4987314453125,9.876633636808394,2.510378016079962,2.355592235776782
1772470166376739300,1.5087392578125,9.355175229278206,2.4264786666437983,2.7311042952805757
1772470166386747400,1.518747314453125,8.106313816824555,2.606543849632144,2.987174275062978
1772470166396755200,1.528755126953125,5.74315494518578,3.2265579084604976,2.9788726029247043
1772470166406763300,1.53876318359375,1.8782061942070722,2.398885580188781,1.9502689753770828
1772470166416772400,1.5487724609375,-2.916500025641918,1.4859930291406809,-0.06731576930601149
1772470166426780200,1.5587802734375,-7.723189528751373,1.5037480276703834,-0.3277900849945843
1772470166436788200,1.568788330078125,-11.44311722985506,0.5941331831187009,-0.32960517159253355
1772470166446796500,1.578796630859375,-12.930842343485354,0.2726455592691898,-0.7119280801549553
1772470166456804400,1.588804443359375,-14.004211579954623,0.27205489989966153,-1.4480667647197842
1772470166466813400,1.5988134765625,-16.377500215941666,-0.049645782178640366,-2.675843011307716
1772470166476821500,1.608821533203125,-19.6166551556468,-0.18226912277340887,-4.130529778689146
1772470166486829300,1.618829345703125,-22.592446743690967,-0.19288930098712442,-5.622485661756992
1772470166496837400,1.62883740234375,-25.2923930996418,0.006434416961669922,-7.172109305417537
1772470166506845200,1.63884521484375,-26.94632818164825,0.8469967680752277,-8.302247307813166
1772470166516854300,1.648854248046875,-28.340324041223525,1.915020697993785,-8.83317087830305
1772470166526862300,1.6588623046875,-30.17920886338949,2.925674096700549,-8.026225550109148
1772470166536870100,1.6688701171875,-31.17707657641172,4.2050235863983625,-7.361501996460556
1772470166546878500,1.67887841796875,-30.60806789767742,5.194000721478462,-8.517962773114442
1772470166556886300,1.68888623046875,-29.309737228655813,5.527058956134319,-9.483124148321151
1772470166566895400,1.698895263671875,-26.953545857942103,5.151857277753949,-9.22614845187068
1772470166576903400,1.7089033203125,-22.80625783667564,4.537584977447986,-8.763158599922061
1772470166586911200,1.7189111328125,-17.705235843145847,3.819840027707815,-7.786321399968862
1772470166596919300,1.728919189453125,-12.608179246115684,3.1145331192582844,-6.285135331740975
1772470166606927400,1.73892724609375,-8.36073047644198,2.9697336031794546,-4.639638699994981
1772470166616936200,1.748936279296875,-5.476849694854021,3.2989570819780227,-2.1148006352774797
1772470166626944300,1.7589443359375,-3.2270944995552298,3.2642779827848076,-0.5228675436757505
1772470166636952300,1.768952392578125,-0.9247960470706224,3.71492360920608,-0.4262384034607559
1772470166646960400,1.77896044921875,1.7516238873422145,4.0972599617719645,-0.6109812959365546
1772470166656969200,1.78896923828125,4.742161209097504,5.091408362010121,-0.24460388879645614
1772470166666977300,1.798977294921875,8.074606426918507,5.7073021260380745,0.3371386358372867
1772470166676985300,1.8089853515625,11.369629968839883,5.9876785718202585,0.8436213002927601
1772470166686993400,1.818993408203125,13.393234229540823,6.31645810624361,0.9035591977745294
1772470166697001200,1.829001220703125,14.51237620614767,6.688876875907182,0.6409893345788121
1772470166707010300,1.83901025390625,15.458291613614557,6.978296459844708,0.5785794940255582
1772470166717018400,1.849018310546875,16.314747114908695,7.100140047749877,0.5457789751205593
1772470166727026200,1.859026123046875,16.64076069175005,7.012229709106683,0.4620715680599212
1772470166737034500,1.869034423828125,17.0791684756279,6.701144821327924,0.041657267642766234
1772470166747042300,1.879042236328125,17.91392184820175,6.133231536614894,-0.790365364792943
1772470166757051400,1.889051513671875,18.466444671559334,5.405867694658041,-1.41592156791836
1772470166767059500,1.8990595703125,18.487443035924432,4.561000924348831,-1.7008021932519972
1772470166777067500,1.909067626953125,18.295097924816606,3.609829203788936,-1.9747155804999172
1772470166787075600,1.91907568359375,18.65182929600477,2.8339479991614818,-2.489934070727229
1772470166797083400,1.92908349609375,18.819463159704206,1.77085144264251,-3.324895240832865
1772470166807092500,1.939092529296875,18.698982676845787,1.281867025476694,-3.6869215035587546
1772470166817100500,1.9491005859375,18.366607163757084,1.2097536831632256,-3.387255543155968
1772470166827108400,1.9591083984375,17.68665506131649,1.5019234425917267,-3.0839830826938153
1772470166837116400,1.969116455078125,16.907333068585395,1.9612486345529556,-3.0801886588469145
1772470166847125500,1.97912548828125,16.6807256223917,2.356245438988507,-3.192496356643736
1772470166857133300,1.98913330078125,16.42363652869463,2.820527084313333,-3.098630908988416
1772470166867141400,1.999141357421875,16.055081448721886,3.3521891982108354,-2.905341502767801
1772470166877149700,2.009149658203125,15.6996208281219,3.7750510379105804,-2.610277775463462
1772470166887157500,2.019157470703125,15.009907210123538,4.222931291271746,-2.3558253138802945
1772470166897166600,2.02916650390625,14.074075974297523,4.523362098567188,-2.3228990497037767
1772470166907174700,2.039174560546875,13.126965804088115,4.591436686883866,-2.521627432107925
1772470166917182500,2.049182373046875,12.217812147307395,4.524869872781634,-2.3970946051187814
1772470166927190500,2.0591904296875,11.710793184018135,4.3245472069233655,-2.0237613509587944
1772470166937198300,2.0691982421875,11.40937862638235,4.145698121726513,-1.782134176418185
1772470166947207400,2.07920751953125,10.711114622181654,4.072955541598796,-1.4955485007323324
1772470166957215500,2.089215576171875,9.587316344201565,3.771710203050077,-0.8962466828040778
1772470166967223300,2.099223388671875,8.567395789325237,2.981874707350135,-0.21587971595227717
1772470166977231600,2.109231689453125,8.068325154691934,1.7208187069728968,0.8932127219356596
1772470166987239700,2.11923974609375,7.480477335453033,0.39775004866644736,1.9646685259990393
1772470166997248500,2.12924853515625,6.205646784484386,-0.30660335845053194,2.878921990136802
1772470167007256600,2.139256591796875,4.125325195783376,0.7087785300828516,2.584308636948466
1772470167017264400,2.149264404296875,-0.5458095894545316,2.4461077884823084,1.3002920322224496
1772470167027272400,2.1592724609375,-7.6431515309184785,3.0181057121604677,0.3571537613186985
1772470167037281500,2.169281494140625,-14.78300867202878,3.644870706553757,-0.2922191880607977
1772470167047289300,2.179289306640625,-21.353903311634063,5.490106651312113,-1.5682820207707584
1772470167057297400,2.18929736328125,-26.120164942765236,7.639117160835862,-3.017305501693487
1772470167067305500,2.199305419921875,-30.09153291802406,9.722573540431261,-4.097034920844435
1772470167077313500,2.2093134765625,-35.99986147427558,11.41844339184761,-3.7139006958991287
1772470167087322400,2.219322265625,-42.00381313550472,12.778652717155218,-1.9041086972266434
1772470167097330700,2.22933056640625,-46.090967882847785,12.678090402209758,-0.567490894582495
1772470167107338500,2.23933837890625,-47.27234273600578,10.928806940513848,-0.6052371993266046
1772470167117346600,2.2493466796875,-45.0018773456335,8.538843648579716,-1.9856663058422506
1772470167127354400,2.259354248046875,-39.189069018507,6.523479392957687,-4.304311643624305
1772470167137363500,2.269363525390625,-31.64961810055971,5.153902519845962,-5.490909784388542
1772470167147371500,2.27937158203125,-25.218376261794564,4.21228217922449,-4.7279199177771805
1772470167157379300,2.28937939453125,-20.85164235652685,3.9173821180492636,-2.5279233173817395
1772470167167387400,2.299387451171875,-17.29783928360343,3.8633059522077438,-0.8142470295093953
1772470167177396500,2.309396484375,-13.583816422629356,4.273441289064288,-0.3268391409453004
1772470167187404300,2.319404296875,-10.707239242053031,4.947473938328027,0.09368022728152572
1772470167197412600,2.32941259765625,-8.055189778786897,6.279167363247275,0.9728681501917541
1772470167207420700,2.339420654296875,-4.868395725437998,7.164129412579536,1.8065613461881875
1772470167217428500,2.349428466796875,-1.7318723081678151,7.7946052441895,2.676867678180337
1772470167227437600,2.3594375,0.6582827069461346,8.008604553222655,2.9563845845237373
1772470167237445600,2.369445556640625,3.4391911898374556,7.886765056970715,2.4816712692946195
1772470167247453400,2.379453369140625,6.443476466438174,7.4921233495831485,1.7057915259718894
1772470167257461500,2.38946142578125,8.944768382003902,6.745561470681428,0.772335348714143
1772470167267470600,2.399470703125,10.829487319105864,6.161869602078199,-0.6921091348327696
1772470167277478400,2.409478515625,12.302850729906558,5.661786575531959,-1.965673757518828
1772470167287486500,2.419486572265625,13.853535865318774,5.439308776488899,-2.295311370076239
1772470167297494500,2.42949462890625,16.189588118845222,5.354798017156123,-2.0631581263236702
1772470167307502600,2.439502685546875,18.477040884375572,5.311418894156813,-1.8149954125344752
1772470167317511700,2.44951171875,19.65986535181999,5.227567475515603,-1.2131902334831655
1772470167327519500,2.45951953125,20.04946321982145,5.107506679373979,-0.18179989782646297
1772470167337527600,2.469527587890625,20.052327377080918,4.965289581003785,0.8060958717577159
1772470167347535400,2.479535400390625,20.103933645677564,4.993592715424299,1.144632391694188
1772470167357544400,2.48954443359375,20.874744999694823,4.801622282847762,0.9392425055742263
1772470167367552500,2.499552490234375,21.282958720839023,4.352179310214519,0.23810199608914553
1772470167377560300,2.509560302734375,20.686617798542976,3.9762101545929904,-0.38364118808675557
1772470167387568400,2.519568359375,20.290571485054492,3.669770462271571,-0.5232689640834928
1772470167397576400,2.529576416015625,20.00273186378479,3.606714286638796,-0.6801786046728492
1772470167407585300,2.539585205078125,18.86815617120266,3.6679999454677104,-1.0919918846789747
1772470167417593600,2.549593505859375,17.23131250925064,3.7161040511623025,-1.6816957801133394
1772470167427601700,2.5596015625,15.772667359632253,3.9847485580965873,-2.1282066448174417
1772470167437609500,2.569609375,14.83050925887227,4.263165978765487,-2.336568678615987
1772470167447618600,2.57961865234375,14.367557400846481,4.405391552703082,-2.3800226204171775
1772470167457626600,2.589626708984375,13.899713094604014,4.54093428787589,-2.306089807591587
1772470167467634400,2.599634521484375,13.120669334292412,4.768492458923161,-1.9805153528198598
1772470167477642500,2.609642578125,12.252598214006424,5.049564778015017,-1.22924427331388
1772470167487650300,2.619650390625,11.729553998589514,5.3049838926732535,-0.10934263744615018
1772470167497659400,2.629659423828125,11.327045211088656,5.597829359406233,0.8909783870123327
1772470167507667500,2.63966748046875,10.537931307661532,5.853996662083268,1.675426198324561
1772470167517675500,2.649675537109375,9.271665755942463,5.996515958270431,2.13725928145349
1772470167527683600,2.65968359375,7.617289359909296,5.744646060526371,2.151294674938172
1772470167537692700,2.669692626953125,5.953506837627291,4.647683182501793,2.22206113268733
1772470167547700500,2.679700439453125,4.510006065648794,3.0202143748775123,2.3951123452603817
1772470167557708500,2.68970849609375,3.2480531164318323,0.9046519614472984,2.482667879116535
1772470167567716600,2.699716552734375,2.3372867637574672,-1.582618150767684,2.8294568252220746
1772470167577724400,2.709724365234375,1.8287994814813135,-3.5245416148647664,3.308583865240216
1772470167587733500,2.7197333984375,0.5355313565462827,-2.654623113146424,3.0049829034760593
1772470167597741300,2.7297412109375,-3.8354602061659095,0.26846440112702546,2.1513711011752483
1772470167607749400,2.739749267578125,-11.793830363667011,2.528781980037689,2.3647039091236888
1772470167617757400,2.74975732421875,-20.342874503743648,5.378683919656276,3.1062139114633203
1772470167627766300,2.759766357421875,-27.159870394563672,9.169013775241375,3.349588368062675
1772470167637774600,2.769774658203125,-33.43841407295465,12.145734753090142,3.920691680988669
1772470167647782700,2.77978271484375,-39.8041497125864,12.791332165986299,4.846899640683829
1772470167657790500,2.78979052734375,-44.32856424281597,12.452303624749183,3.8526276140660047
1772470167667799600,2.799799560546875,-45.97195454993248,10.648542722934485,0.7437871534913778
1772470167677807600,2.8098076171875,-44.850841565513605,8.049677737367153,-2.0134724505260584
1772470167687815400,2.8198154296875,-42.004103058362006,6.850914527034759,-1.2701605133309959
1772470167697823500,2.829823486328125,-37.41140234289169,5.559916100597381,-0.4131280889317393
1772470167707831300,2.839831298828125,-31.43454911646843,5.419256753063202,-0.48968759699910874
1772470167717840400,2.84984033203125,-26.05243522236347,6.110629244184493,-1.3976694335214792
1772470167727848400,2.859848388671875,-21.589561494767665,6.513715539312362,-3.146506174363196
1772470167737856500,2.8698564453125,-17.677637057602404,6.686406101879477,-3.6603234194904566
1772470167747864300,2.8798642578125,-13.95179282593131,7.167836450403929,-2.832766680422425
1772470167757873400,2.889873291015625,-10.002877505499123,7.23704267309904,-2.102078077957034
1772470167767881500,2.899881591796875,-5.744395300635695,7.194855390232801,-0.9196398333512246
1772470167777889300,2.90988916015625,-1.9282219787418842,7.56097710557878,0.962587433065474
1772470167787897300,2.9198974609375,1.839862142765522,8.517757021409272,2.693764744706452
1772470167797906400,2.929906494140625,5.950137653455138,9.37809140996337,3.5796298803582784
1772470167807914200,2.939914306640625,10.137393527972698,9.886475816386938,3.783654615604877
1772470167817922300,2.94992236328125,13.84373577131629,10.194214900869131,3.182028154121339
1772470167827930000,2.95993017578125,16.821406012713908,10.057394693106412,2.525322194972634
1772470167837938400,2.9699384765625,18.751436502182482,9.595427754464746,2.1677555420041084
1772470167847947300,2.979947265625,19.636900655817985,8.816167136532068,1.8500846999637781
1772470167857955300,2.989955322265625,20.607863995301724,7.7558993736982345,1.332300743162632
1772470167867963400,2.99996337890625,21.966856346035,6.168277715554833,0.8000143598869442
1772470167877971500,3.009971435546875,23.32464224358797,4.77825777387321,0.09827164672501384
1772470167887980300,3.019980224609375,24.207974061369896,3.7639603195756672,-0.3759341573733836
1772470167897988400,3.02998828125,24.595315674877167,3.2993010731101036,-0.5635713099859655
1772470167907996400,3.039996337890625,24.196634336709973,3.1760651540637013,-0.6912421427398919
1772470167918004200,3.050004150390625,23.381572337555884,3.2961265347272155,-0.7897283089984208
1772470167928013300,3.060013427734375,22.45510046622753,3.523492690333724,-1.008348336634785
1772470167938021400,3.070021484375,21.332876890218255,3.402804117682576,-1.2917561129368842
1772470167948029200,3.080029296875,20.20381207001209,3.4167703914538023,-1.6397307616956531
1772470167958037500,3.09003759765625,19.258527946186064,3.5428447487965222,-1.9769950697392225
1772470167968045300,3.10004541015625,18.817251328873635,3.671071900258958,-2.4915429672285914
1772470167978054400,3.110054443359375,18.339428064930438,3.9566704646036026,-2.949289073304832
1772470167988062500,3.1200625,17.49062044804096,4.330593793611229,-2.8284242673039435
1772470167998070300,3.1300703125,16.354752962082625,4.83029921901673,-2.502847328314185
1772470168008078300,3.140078369140625,14.894099395251272,5.371399607867002,-2.145937677949667
1772470168018087400,3.15008740234375,13.406321674650906,5.741152957713604,-1.6701377365276215
1772470168028095200,3.16009521484375,12.000365328168868,5.929766481077671,-1.1263201976731418
1772470168038103300,3.170103271484375,10.741019931101798,6.1778480924546715,-0.24492146684564647
1772470168048111000,3.180111083984375,9.682204120641947,6.412980790409446,0.7983430656738579
1772470168058120200,3.1901201171875,9.280459887772798,6.531280422097444,1.366121618091315
1772470168068128300,3.200128173828125,8.988793401691318,6.427349507501721,1.7417577423661945
1772470168078136300,3.21013623046875,7.551793682169913,5.981348784276843,2.161107190030813
1772470168088144400,3.220144287109375,4.628333754387498,5.052222014525532,2.579915370425582
1772470168098153500,3.230153564453125,0.9070628219813108,3.27674992634505,2.8532383905649183
1772470168108161300,3.240161376953125,-1.9757120441913603,1.0564796225972473,2.405598083439469
1772470168118169300,3.25016943359375,-3.1785406042665243,-0.35947095221988856,1.5120961692988872
1772470168128177400,3.260177490234375,-4.3581133764386175,-0.6646893591180444,0.13517353653423486
1772470168138186200,3.270186279296875,-7.639114822748303,0.8075143602535129,-1.2363260482683778
1772470168148194300,3.2801943359375,-14.21097100086212,2.4989000519931315,-0.5707003581482917
1772470168158202400,3.290202392578125,-21.560131986665724,4.078721850040555,0.8974170417577028
1772470168168210200,3.300210205078125,-26.741046432077884,7.3134987207919355,1.1135068933293222
1772470168178218200,3.31021826171875,-29.789622685825822,10.625942768591642,1.6194026978075504
1772470168188227300,3.320227294921875,-33.17792306185961,11.66203236798048,3.33863092071861
1772470168198235400,3.3302353515625,-36.72385963919162,11.930602640634774,4.823674247919023
1772470168208243500,3.340243408203125,-37.92637080388069,11.132753642088174,4.532456966909766
1772470168218251300,3.350251220703125,-37.09980541393757,9.42932124646306,2.561843707162142
1772470168228260400,3.36026025390625,-35.697086149680615,8.332019345742463,0.6962617244675755
1772470168238268400,3.370268310546875,-34.41405592564344,7.2909858602106565,0.01094122686162591
1772470168248276200,3.380276123046875,-32.69375189019441,6.355280881112813,0.17298633064329624
1772470168258284300,3.3902841796875,-29.635477249252794,5.767482161712646,0.2091979001007974
1772470168268293400,3.40029345703125,-25.880461868155002,5.33990323036313,0.3166721863918006
1772470168278301200,3.41030126953125,-21.865974882137774,5.151719915109872,0.5312238686107099
1772470168288309200,3.420309326171875,-17.67007334434986,5.09584839028418,0.4450369927592575
1772470168298317300,3.4303173828125,-13.486445597201586,5.179132822692394,0.2392374298598617
1772470168308326100,3.440326171875,-9.897377149629593,5.620678320074081,0.4572632909953594
1772470168318334500,3.45033447265625,-7.006683765417337,6.503680467510223,0.9096163058564066
1772470168328342300,3.46034228515625,-4.350795746901631,7.669712790107726,1.537348391716182
1772470168338350300,3.470350341796875,-1.343988842868805,9.047225132393837,2.301096090957522
1772470168348359400,3.480359375,2.2383272078335286,10.492522140139341,2.6811224130153652
1772470168358367200,3.4903671875,6.349960562872886,11.556744778078794,2.8303780317202207
1772470168368375300,3.500375244140625,10.881356622552872,12.142448571026325,2.257645948548615
1772470168378383400,3.51038330078125,14.934466476953029,11.994552842497825,1.7724796283662319
1772470168388392200,3.52039208984375,17.74185497049093,11.615904238533973,1.609994233471155
1772470168398400300,3.530400146484375,19.740819295454024,11.035567525577545,1.5827964299440382
1772470168408408300,3.540408203125,21.40529213808775,9.833052853757142,1.6958876793339848
1772470168418416400,3.55041650390625,22.960955061912536,8.655502527323364,1.614626861707866
1772470168428425200,3.56042529296875,24.2072539304018,7.499243410721421,1.40067519120872
1772470168438433500,3.57043359375,25.05048053228855,6.493761715564132,1.1403350598264486
1772470168448441300,3.58044140625,25.539119789278505,5.601874250882863,0.7714388382658361
1772470168458449400,3.590449462890625,25.93447169076204,4.648899572554231,0.0837103296700865
1772470168468457200,3.600457275390625,26.634583953177927,4.041614646917581,-0.2974136148987338
1772470168478466300,3.61046630859375,27.104946379721163,3.9467280395209787,-0.8293442070066929
1772470168488474400,3.620474365234375,26.143845093560216,3.915050460231304,-1.569269278242439
1772470168498482200,3.630482177734375,23.791460129392146,4.215205957716703,-2.005273800370842
1772470168508490200,3.640490234375,21.148053406786918,4.71816717004776,-2.3661517698444423
1772470168518499300,3.650499267578125,19.02064974891543,5.329913166746497,-3.0173709681451317
1772470168528507100,3.660507080078125,17.641623494935036,6.001822832506894,-3.530706274974346
1772470168538515500,3.670515380859375,15.980069754618405,6.68526336158514,-3.736746149435639
1772470168548523500,3.6805234375,13.880536100447177,7.228650107806921,-3.714431441774964
1772470168558532400,3.690532470703125,11.920935817623137,7.522779184609651,-3.4386046221211553
1772470168568540400,3.70054052734375,10.399098006510734,7.5580270236015314,-3.2617958105802534
1772470168578548500,3.710548583984375,9.31650501462221,7.5263085277795785,-3.2113886886402963
1772470168588556300,3.720556396484375,8.243692827513813,7.271707159245014,-3.1685774286568162
1772470168598565400,3.7305654296875,7.086358190634846,6.647573390138149,-3.3794434081003066
1772470168608573200,3.7405732421875,5.9143508852809665,5.961607141974568,-3.1243057407319546
1772470168618581200,3.750581298828125,4.719156765606999,5.163154332315922,-2.3324374240301546
1772470168628589300,3.76058935546875,3.7438194488227365,3.9501322950065134,-1.2285222426496445
1772470168638598100,3.77059814453125,3.0310645624548194,2.330776797341555,-0.362701860432513
1772470168648606200,3.780606201171875,2.8992905321657654,0.45729931215681136,0.3012569924538955
1772470168658614300,3.7906142578125,3.3081115715533493,-1.0054660591967404,0.8635947055242955
1772470168668622300,3.800622314453125,3.7004561079144476,-1.0347853849224746,0.9902502968210727
1772470168678631400,3.81063134765625,2.70865982376039,0.4433549944890663,0.9233280934099107
1772470168688639500,3.820639404296875,-0.9425397935539483,1.4913064792484043,2.059593273448944
1772470168698647300,3.830647216796875,-5.600033006930351,2.3948316286228595,3.2996202220618724
1772470168708655400,3.8406552734375,-9.247285347923636,4.931379712617397,3.709526718598604
1772470168718664400,3.85066455078125,-12.775731276750564,8.415366321992874,4.472188376168907
1772470168728672300,3.86067236328125,-17.985484863156078,11.6856026286602,6.50896512991488
1772470168738680000,3.87068017578125,-24.26328152257204,14.838184031283854,9.306502676045895
1772470168748688100,3.880688232421875,-31.316711841595172,17.12547196164131,11.534493198782204
1772470168758697000,3.890697021484375,-37.90515967354774,18.02811755170226,10.637614501684903
1772470168768705000,3.900705078125,-43.13844494218826,17.370494185447694,7.870610625505447
1772470168778713000,3.910713134765625,-45.706619021415705,15.728952136546372,4.80711766539365
1772470168788721200,3.92072119140625,-45.57508289153576,14.358237783837318,2.8819366617828606
1772470168798730200,3.930730224609375,-43.95272602009773,12.816189543867111,2.644628957876563
1772470168808738000,3.940738037109375,-41.362601974868774,11.09780975447893,2.1539991115912795
1772470168818746000,3.95074609375,-37.456031758213044,9.021918841701746,0.28943405085429547
1772470168828754200,3.960754150390625,-32.489468504011626,6.700897568568587,-2.4564821752414105
1772470168838763000,3.970762939453125,-26.9401930398941,5.338837646958232,-4.3132054364368315
1772470168848771000,3.98077099609375,-20.775205598056314,5.689314049404859,-4.414564746978879
1772470168858779100,3.990779052734375,-14.586673614501953,7.221677346184849,-3.457676402337849
1772470168868787000,4.000786865234375,-8.703277254933118,9.21978768466711,-2.052411252990365
1772470168878796000,4.010796142578125,-4.355596425181627,10.579607718396186,0.47729821715578435
1772470168888804000,4.02080419921875,-0.6643202335447073,12.152443895339966,2.825000722596049
1772470168898812200,4.030812255859375,3.6235096463561054,13.667130665653943,3.792991476009786
1772470168908820200,4.0408203125,8.115669674190878,14.594355401176214,3.5886271335452795
1772470168918829300,4.050829345703125,12.39935997006893,15.167226600557564,2.6145328025594354
1772470168928837000,4.060837158203125,16.455886939436198,15.496602347308396,1.385542504006624
1772470168938845200,4.07084521484375,20.082764600920676,15.383661027783155,0.08758446768969297
1772470168948853000,4.08085302734375,23.208588929522037,14.46664555158615,-0.758131101468578
1772470168958862000,4.090862060546875,26.770228102898596,13.315930040585993,-0.6406963429816067
1772470168968870100,4.1008701171875,29.318556494927403,11.734288625895976,-0.5200285208575427
1772470168978878000,4.1108779296875,29.454013597643375,9.721657010108231,-0.19887816613838075
1772470168988886000,4.120885986328125,28.52417020405531,8.186731753885745,0.40082689882852135
1772470168998895000,4.13089501953125,27.539136253643033,7.2932310087889425,0.2510547089036554
1772470169008903000,4.14090283203125,26.73971138408184,6.427724770554899,-0.7712823325298727
1772470169018911200,4.1509111328125,26.081336322677135,5.336853195142746,-2.07970491810739
1772470169028919300,4.160919189453125,25.38924136250019,4.5147254953861236,-2.970820521633327
1772470169038928100,4.17092822265625,24.39039866696596,4.097413106507062,-3.4448940776541828
1772470169048936200,4.180936279296875,23.075764513397214,3.9372704753458496,-3.456607896323502
1772470169058944000,4.190944091796875,21.59277636516094,4.312699532741308,-3.106323801578581
1772470169068952000,4.2009521484375,19.971279909944535,5.100411168155074,-2.386226005101949
1772470169078961200,4.210961181640625,18.597384589111805,6.077221480101347,-1.665286204843223
1772470169088969000,4.220968994140625,17.228995464479922,6.82594024477601,-1.311319037671387
1772470169098977000,4.23097705078125,15.846474938642977,6.909522783347964,-1.4260444641344248
1772470169108985000,4.240985107421875,14.888171174246072,6.857344852343201,-1.5643302144050597
1772470169118994000,4.250993896484375,13.798165275752543,6.9179118415087455,-1.5430933651089667
1772470169129002000,4.261001953125,12.453081038862466,6.896804171550274,-1.1960722907479853
1772470169139010300,4.27101025390625,11.221694492822884,6.80516516777277,-0.47606684872992333
1772470169149018000,4.28101806640625,9.97492917586565,6.602880261930823,0.30175102304853496
1772470169159027200,4.291027099609375,8.54286632822454,6.324290115043521,0.9414039944570511
1772470169169035300,4.30103515625,6.984497652572393,5.503057318300009,1.2463824551194906
1772470169179043000,4.31104296875,5.709537922266126,4.001253410434723,1.149907190291956
1772470169189051100,4.321051025390625,5.023159001648426,1.8128963944286107,1.1238082148522137
1772470169199060200,4.331060302734375,4.869939447748661,-0.13198478696290403,0.946491307658702
1772470169209068000,4.341068115234375,4.117110909667611,-1.6863006435602903,0.31550358100384474
1772470169219076000,4.351076171875,1.996050483343005,-2.01110586752519,-0.468434527220577
1772470169229084000,4.361083984375,-2.070941765937209,0.19782778030261397,-1.8301102718189357
1772470169239093000,4.371093017578125,-8.771852778509258,4.369095081441104,-2.6952929771870373
1772470169249101000,4.38110107421875,-18.62266399179697,7.654554383942484,-1.1331821923971175
1772470169259109000,4.391109130859375,-28.252832804775235,9.571906009101868,1.5883588863767684
1772470169269118000,4.401117919921875,-33.83230700780153,12.195836462342738,2.351278464230895
1772470169279126300,4.411126220703125,-38.25254103258848,14.408465749818086,2.670862300285697
1772470169289134000,4.421134033203125,-42.06000205571651,13.738759147059916,1.945904350426793
1772470169299142100,4.43114208984375,-44.080507181358335,12.827283769333361,-0.9342494465272874
1772470169309151200,4.441151123046875,-44.42580062820911,11.752407635432482,-4.168973198851943
1772470169319159000,4.451158935546875,-43.014858310008044,9.88926983101964,-5.62547256861329
1772470169329167000,4.4611669921875,-40.77826713218689,7.654370259547233,-5.14834839285016
1772470169339175200,4.471175048828125,-37.016036412882805,6.370144688245654,-3.8452176300704477
1772470169349184000,4.48118408203125,-31.784600571501255,5.938547168904543,-2.8148323798030614
1772470169359192000,4.491192138671875,-25.77529702785015,6.091054190620779,-2.377559737434983
1772470169369199900,4.501199951171875,-20.56842045818567,6.465831506109237,-1.9253915776215493
1772470169379208200,4.511208251953125,-16.663609652417897,6.768749454045295,-1.680609153920412
1772470169389217000,4.521217041015625,-13.475294088590145,7.20289431978166,-1.269675360162556
1772470169399225000,4.53122509765625,-11.020921745109558,7.910244132235646,-0.15469715217165647
1772470169409233200,4.541233154296875,-8.40889917180538,8.080635185688733,0.4059584164980799
1772470169419241200,4.5512412109375,-4.932694886869192,7.923338591608404,-0.4702583085816353
1772470169429250000,4.56125,-1.2283604762166738,8.531883161917328,-0.6089898298583925
1772470169439258000,4.571258056640625,2.618165898364782,8.036536516243219,-0.8215639283940196
1772470169449266200,4.58126611328125,6.195396024104952,8.487571141982079,-1.1653379105925559
1772470169459274000,4.59127392578125,9.23675869321227,8.901066018399595,-1.0586544824182986
1772470169469283000,4.601282958984375,11.9443564406991,9.409381451240181,-1.161942569065839
1772470169479291100,4.611291015625,14.158660967910288,10.3149362067461,-1.4299733280159532
1772470169489299000,4.621298828125,15.808865631216763,11.731146236217022,-0.8407027824975549
1772470169499308000,4.63130810546875,17.40998448431492,12.321452554523944,0.7251176704652607
1772470169509316000,4.641316162109375,19.244328740441798,12.121337978458405,2.177778338846564
1772470169519324200,4.65132421875,21.109395467090607,11.322390078759193,3.182865481728315
1772470169529332200,4.661332275390625,22.43655007953644,10.050532406121492,3.3072400494158267
1772470169539341300,4.67134130859375,23.763896415162087,9.01624021154344,-0.3690283965729177
1772470169549349000,4.68134912109375,24.983031382393836,6.961053648620844,-2.75875451875031
1772470169559357200,4.691357177734375,26.190831301140783,6.874065685519576,-1.997059368124604
1772470169569365000,4.701364990234375,25.12951958221197,6.842870336788892,-3.279898161242902
1772470169579374000,4.7113740234375,23.062343890810013,5.426058834293484,-4.239254065041243
1772470169589382100,4.721382080078125,22.157148616266248,4.717450546211004,-4.56929207509309
1772470169599390000,4.731389892578125,20.754875926733014,4.587462230294943,-4.738001751330494
1772470169609398000,4.74139794921875,19.472520240956545,3.972613006883859,-4.825648470601439
1772470169619407000,4.751406982421875,19.451499664759634,3.7702223025798793,-5.38102668339014
1772470169629415000,4.761414794921875,18.890113151466846,4.039791815404594,-5.452235478079318
1772470169639423200,4.77142333984375,18.51087184230685,4.150425734770298,-5.545139971747994
1772470169649431000,4.78143115234375,18.194096049410103,4.485113908715546,-5.288187656173109
1772470169659440000,4.791440185546875,17.70609041414857,4.788307166461646,-4.942893624800443
1772470169669448200,4.8014482421875,16.898922967636583,5.10183681704402,-4.726998711279034
1772470169679456000,4.8114560546875,15.853106924003361,5.309571220463514,-4.3952731865316625
1772470169689464000,4.821464111328125,14.490491706597805,5.345533345204592,-3.502091590386629
1772470169699473200,4.83147314453125,13.13544137148857,5.455296034693718,-2.81421980086267
1772470169709481000,4.84148095703125,11.675096432214975,5.211263990968465,-2.3047091668881476
1772470169719489000,4.851489013671875,10.186128625047207,4.1066137733116745,-1.9428914323464035
1772470169729497000,4.8614970703125,9.282218714138866,3.0978245610415933,-1.6773516134291886
1772470169739506000,4.871505859375,8.608049871274828,1.9267234107472002,-1.1609061386901884
1772470169749514000,4.881513916015625,6.7689096130430695,1.1255036205932498,-0.6578413929194211
1772470169759522000,4.89152197265625,3.7400539588093755,1.5783831435464322,-0.5526282564934343
1772470169769531100,4.90153125,0.48271512763798236,3.2486940446838735,-0.2503189419750124
1772470169779539000,4.9115390625,-3.863948634025454,5.771591935119033,-0.07921879040449857
1772470169789547000,4.921547119140625,-10.548560253703593,8.2539576164186,0.033887218163162466
1772470169799554800,4.931554931640625,-18.827208074742554,8.762610902911424,0.00863850287720561
1772470169809564000,4.94156396484375,-26.730637266266346,9.282419205147027,-0.8982809651106596
1772470169819572000,4.951572021484375,-32.43545868140459,10.810242520409822,-2.743093423759937
1772470169829579800,4.961579833984375,-36.99433428416252,10.73642792713642,-5.5552463552206754
1772470169839587800,4.971587890625,-40.79955775749683,9.88070892342329,-9.077640728923678
1772470169849597000,4.981596923828125,-45.43781844713688,8.791156613916158,-11.018165139877796
1772470169859604700,4.991604736328125,-49.63293204941749,7.754063974964618,-11.18190608779192
1772470169869613000,5.001613037109375,-50.56823721554279,6.735034231448173,-11.340538314390182
1772470169879621000,5.01162109375,-48.60487494983673,4.974322782287001,-12.57595923051238
1772470169889630000,5.0216298828125,-43.86694626374244,5.041780115488171,-9.659636899524926
1772470169899638000,5.031637939453125,-37.64861535425186,6.2151926114648575,-7.6877599034518
1772470169909646000,5.04164599609375,-31.241058342456817,7.111810611799359,-7.563966935044527
1772470169919655000,5.051655029296875,-25.6151847918272,8.228619177022576,-6.130533383572101
1772470169929663000,5.0616630859375,-21.9263162458539,9.13298969117999,-4.167900601184368
1772470169939671000,5.071671142578125,-18.894410556399823,10.074401942008732,-2.437072249111533
1772470169949678800,5.081678955078125,-14.224113391029833,10.687249762469529,-1.6327442638091743
1772470169959688000,5.09168798828125,-8.903582969656586,10.775286942362785,-0.5162153923101723
1772470169969696000,5.101696044921875,-3.734104110494256,11.045500890570878,1.1870203116990625
1772470169979703800,5.111703857421875,1.5337258173048496,11.458836192512512,2.8914699215427038
1772470169989712000,5.1217119140625,6.185488378074765,11.683571999615431,4.685908575999736
1772470169999721000,5.131720947265625,10.353982268977164,11.49822829170227,5.913588668736815
1772470170009729000,5.14172900390625,14.007178613066673,11.159647494232654,5.888446628695726
1772470170019737000,5.151737060546875,16.645629759091136,10.841793842971324,4.741131866049766
1772470170029745000,5.161744873046875,18.741271666520834,10.417564222049712,3.572951717768609
1772470170039754000,5.17175390625,20.324808101177215,10.377010093343257,2.3368735067814588
1772470170049762000,5.181761962890625,21.173276695370674,10.456348418474196,1.1370064999256282
1772470170059769900,5.191769775390625,21.912935370755193,10.04893432327509,0.9279889978930354
1772470170069779000,5.201779052734375,23.231658839464185,9.471583932653068,0.7859648648116737
1772470170079787000,5.211787109375,24.496019434344767,8.873172633823751,0.6954365256898105
1772470170089794800,5.221794921875,25.294230836462972,8.400181612342596,0.7058988829933106
1772470170099803000,5.231802978515625,25.5575906809926,8.058815568068622,0.8766935488112271
1772470170109812000,5.24181201171875,25.385897897291184,7.758222263687848,1.1657029445126652
1772470170119819800,5.25181982421875,25.053475622451305,7.45455905034244,1.0954233204323798
1772470170129828000,5.261828125,24.591944152617454,7.159941313239932,0.7679279806006699
1772470170139836000,5.2718359375,23.12471471452713,6.09855009933412,-2.0646721841484306
1772470170149845000,5.281844970703125,21.34683994911909,4.78847755459249,-5.138280587822199
1772470170159853000,5.29185302734375,18.78443159381151,5.248505049604177,-3.7551714484423395
1772470170169860900,5.30186083984375,17.172262938910723,6.566057720968127,-1.100866315203905
1772470170179869000,5.311868896484375,16.431199072903393,8.032565274524687,1.1708025326739997
1772470170189878000,5.3218779296875,14.938188712346554,8.956778553271294,2.737948169825971
1772470170199885800,5.3318857421875,12.823428262948989,9.616346039330958,2.7553292204767463
1772470170209894000,5.341893798828125,11.536769327020645,9.301615488526224,1.9393068518579004
1772470170219903000,5.351903076171875,11.562952400547266,8.921513763144612,1.1177771179944276
1772470170229910800,5.361910888671875,12.29762510421276,8.73402895154953,0.92484931162782
1772470170239918800,5.3719189453125,13.067552661132812,8.236585625857114,1.2498268964849413
1772470170249927200,5.38192724609375,13.650227461647987,8.045324218332768,2.454407707054913
1772470170259935700,5.391935791015625,13.227224167650938,8.701291049551964,4.3953228708922865
1772470170269944000,5.401944091796875,11.572684690010547,9.149173348739742,6.101067635113001
1772470170279952100,5.4119521484375,9.020203854477405,8.984640373665094,6.538958117118478
1772470170289960000,5.4219599609375,6.858417450010776,8.319197858092188,5.822794299089908
1772470170299969000,5.431968994140625,5.964132276538014,6.9621811913460485,4.532190424928069
1772470170309977000,5.44197705078125,5.867397995448112,5.259702735444903,1.8321102134644984
1772470170319985000,5.45198486328125,5.298560581627488,3.7735216363862154,-2.3059818171724675
1772470170329994000,5.461993896484375,1.4019967952013015,3.911575185336172,-5.646978882500529
1772470170340001800,5.472001708984375,-6.69673226558268,5.410248101699352,-6.688217535215616
1772470170350009900,5.482009765625,-17.650835559916494,6.444143405914306,-7.28266226850152
1772470170360018000,5.492017822265625,-28.60678418985605,6.060770111516118,-9.090627051746845
1772470170370026800,5.50202685546875,-36.644787856042385,4.910051677906513,-11.517416976296902
1772470170380034800,5.512034912109375,-41.185716298699376,3.715690794186294,-13.83250710581541
1772470170390043100,5.522043212890625,-43.80430422186851,2.9459622669696808,-15.732899997389316
1772470170400051000,5.532051025390625,-46.44616079242229,2.6890955838516355,-15.106637399560212
1772470170410060000,5.54206005859375,-47.42006310796737,3.072320701950788,-13.584651119887829
1772470170420068000,5.552068115234375,-46.396209889817236,3.376876772482693,-12.952305987274647
1772470170430076000,5.562075927734375,-44.140076976180076,3.6138849089205265,-12.036237436538935
1772470170440085000,5.5720849609375,-40.68628676762581,4.161399840988219,-9.720460493800044
1772470170450093000,5.582093017578125,-36.11171090691089,4.739395543776452,-7.45332921628654
1772470170460100900,5.592100830078125,-31.18163117097616,5.199304088583588,-6.2533940395653245
1772470170470109000,5.60210888671875,-27.48371656423807,5.702747531473636,-5.653730110326409
1772470170480118000,5.612117919921875,-24.052991589450833,6.578804974338412,-5.347669188189506
1772470170490125800,5.622125732421875,-20.359982290410993,7.540694780528545,-4.509225728926062
1772470170500134000,5.6321337890625,-16.51617569618225,8.498316992402076,-3.0584429832458495
1772470170510142000,5.642141845703125,-12.357374931776523,9.285284531450271,-1.9165343174271285
1772470170520150800,5.65215087890625,-8.396085282939673,10.122143351870774,-0.7582429643452167
1772470170530159000,5.6621591796875,-4.629964570459723,11.027088451045751,0.747461896481365
1772470170540167000,5.6721669921875,-0.4988491008371114,11.824167049741744,1.6220584730133414
1772470170550175000,5.682175048828125,3.810966400900483,12.558920417428016,1.680161117891967
1772470170560184000,5.69218408203125,7.734110735738277,13.218664429098366,1.563183820848912
1772470170570192000,5.70219189453125,9.88639515236616,14.070047449433803,1.3597745871521532
1772470170580200000,5.712199951171875,10.443023657476902,15.112408968698977,1.3897722505308687
1772470170590209000,5.722208984375,10.404279208540915,16.505075625497103,1.4317115499854087
1772470170600216800,5.732216796875,11.650154883182049,17.12653579148054,1.6562123792886734
1772470170610225000,5.742224853515625,14.064503843832016,16.824120532369612,1.5148879919745026
1772470170620232700,5.752232666015625,17.275616930401323,15.665180798381567,0.6935664940342307
1772470170630241800,5.76224169921875,20.60568723578453,14.310406357604265,-0.05352989360298961
1772470170640249900,5.772249755859375,23.924345335793493,13.028362806516885,0.18608323770146815
1772470170650258000,5.7822578125,26.967062342119217,11.47694701874256,0.2853726466342807
1772470170660266000,5.792265869140625,29.68778026794195,9.71308090494275,0.19527926486358047
1772470170670275000,5.802275146484375,31.25544459520578,7.948540837404131,0.07143712355233728
1772470170680283000,5.812282958984375,31.092103460264205,6.6762360055208205,-0.150678491114825
1772470170690291000,5.822291015625,30.165271523451803,5.949324583506584,-0.34338235253244637
1772470170700300000,5.832300048828125,28.72370493440628,5.480998631227016,-0.766716047527641
1772470170710307800,5.842307861328125,27.021298959219454,5.412053105294704,-0.416265144848451
1772470170720316000,5.85231591796875,25.37277187373638,6.117728847056627,0.477810331396386
1772470170730324000,5.862323974609375,23.35572477959394,7.006506655284762,0.5663344910889864
1772470170740332800,5.872332763671875,20.882703849744797,7.931253602516651,0.5358673835676163
1772470170750340900,5.8823408203125,18.07501841908693,8.944840862718223,0.8455753569699823
1772470170760349000,5.892348876953125,15.23633462357521,9.51831938034296,0.5215918246515094
1772470170770357000,5.90235693359375,13.233165248137711,9.696654670798777,-0.5924439879227429
1772470170780365800,5.91236572265625,12.063111414939165,9.924246451854705,-0.9855392695859074
1772470170790374100,5.9223740234375,11.744635832387209,9.890304434764385,0.055892311885394154
1772470170800382000,5.9323818359375,11.991059739685058,9.689910457235575,0.8711645562566817
1772470170810391000,5.94239111328125,11.18576276322007,9.237503374099731,0.8000980926476419
1772470170820399000,5.952399169921875,8.922249091681838,8.498681149539351,0.06089686044072732
1772470170830407000,5.962406982421875,6.458698000967503,7.502665786385536,-0.5664188449041918
1772470170840415000,5.9724150390625,4.029224536421895,6.252007553642988,-0.36592063981592654
1772470170850424000,5.982424072265625,1.7416268094629048,4.468029210662841,-0.2535556588739157
1772470170860432000,5.992431884765625,0.2943932806968689,2.405694383420795,-0.7410911193404346
1772470170870440000,6.00243994140625,-1.1841489940464496,0.7937374715745449,-0.7554843132868408
1772470170880449000,6.012448974609375,-3.951024275410175,0.4162164103358984,-1.1615480167903005
1772470170890456800,6.022456787109375,-10.219059419268369,0.9952247242327779,-2.3937922025725245
1772470170900465000,6.03246484375,-19.738448474669454,1.368484255569428,-3.8042899918764825
1772470170910473000,6.042472900390625,-29.759945340442655,0.47994054835811256,-5.053324422809482
1772470170920482000,6.05248193359375,-37.20941729677915,0.9165621794715523,-6.558585777652263
1772470170930490000,6.062489990234375,-42.72267686014175,2.1582870180435476,-7.940619981276988
1772470170940498000,6.072497802734375,-48.39671969065666,3.0380136509403584,-8.119381972712278
1772470170950506000,6.082506103515625,-52.45493826637268,2.946483368234336,-7.510646848267316
1772470170960515000,6.09251513671875,-52.998197586822506,2.695668240240216,-6.0530626058787105
1772470170970523000,6.10252294921875,-50.527259892988205,2.512983230142295,-4.700437452089786
1772470170980531000,6.112531005859375,-45.42495428938865,2.5233564478576183,-3.0877079484358427
1772470170990540000,6.1225400390625,-38.24334533421993,2.5676576541379093,-1.6084955193459987
1772470171000547800,6.1325478515625,-29.76131312166452,2.6439690326631067,-0.8601719645339995
1772470171010556000,6.142555908203125,-22.628450954008102,2.6839845244482157,-0.4013493518000468
1772470171020564000,6.15256396484375,-17.933183013510703,2.6032845555752515,0.02146434704218991
1772470171030572800,6.16257275390625,-14.843740496367214,2.653752175530791,-0.05886134972486179
1772470171040580900,6.172580810546875,-12.942895184850691,3.217155873864889,-0.2352691472833976
1772470171050589000,6.1825888671875,-11.322046379888057,4.126657028909027,-0.1075973464150913
1772470171060598000,6.192597900390625,-8.912147968906163,5.284137503999472,0.04237137072887271
1772470171070606000,6.202606201171875,-5.578259566539526,6.323384690636396,0.0903450915094465
1772470171080614000,6.21261376953125,-1.972016112282872,7.27468062209785,-0.20240758237354456
1772470171090622000,6.2226220703125,1.9845652127325533,8.1595129075706,-0.17051157456021754
1772470171100631000,6.232631103515625,6.072565763249993,9.241971459424494,0.23375163712622596
1772470171110638800,6.242638916015625,9.978574254369736,10.128616347277164,0.450819704346545
1772470171120647000,6.25264697265625,13.522569049984217,11.067011296111344,0.014327033375017345
1772470171130656000,6.262656005859375,16.00459863119721,11.768557975244521,-0.12105961618693545
1772470171140663800,6.272663818359375,17.97920125284195,12.49747781447172,0.09407262413259596
1772470171150672000,6.282671875,19.425750306475162,12.566236293399333,-0.054766248731222
1772470171160680000,6.292679931640625,20.588869371974468,12.075123339772224,0.16839060035087167
1772470171170688800,6.302688720703125,21.87428678340912,11.322757158505915,-0.08957695668116211
1772470171180697000,6.312697021484375,22.597106552195548,10.486764599525928,-0.4414457998668775
1772470171190705000,6.322704833984375,22.86723048403263,9.758450324976444,-0.26971242842674253
1772470171200713000,6.332712890625,22.42526179280281,9.528535653930902,-0.08516374334879219
1772470171210722000,6.34272216796875,21.372308736896514,9.718009593516587,0.1496482347516343
1772470171220729900,6.352729736328125,20.334062251734732,9.73855787602663,0.30574191931560635
1772470171230738000,6.362738037109375,19.92361565697193,9.817648363876343,0.4282075846418738
1772470171240747000,6.3727470703125,19.776222617268562,9.585572715404629,0.24977497129142284
1772470171250754800,6.3827548828125,19.534162750399112,9.228512842914462,0.11198087699525057
1772470171260763000,6.392762939453125,19.017377595376967,8.737954600560665,-0.03446998648717999
1772470171270771000,6.40277099609375,18.38590223133564,8.234873561242223,-0.11345832913666963
1772470171280779800,6.41277978515625,17.899016540014742,7.855007982704043,-0.10049144166633486
1772470171290787800,6.422787841796875,16.96717641965151,7.810372137641906,0.17731157343126833
1772470171300796000,6.4327958984375,15.653566348433493,7.590585477378964,0.37962482858486474
1772470171310804700,6.4428046875,14.358342997777461,7.592153749608993,0.49037945172078906
1772470171320813000,6.45281298828125,12.956551954281329,7.517587461185455,0.49018093347400427
1772470171330821000,6.462821044921875,11.696056218135356,7.499372005537152,0.31064971123188734
1772470171340829000,6.472828857421875,10.668137065720558,7.493803850015998,0.22830606680512427
1772470171350838000,6.482838134765625,9.651154317861796,7.268933018356561,0.39033129684254525
1772470171360846000,6.49284619140625,9.261108706092834,6.379380134102702,0.639793621988222
1772470171370854000,6.50285400390625,8.743739029181002,5.295735587334632,0.8656809372138231
1772470171380863000,6.512863037109375,6.872470525282621,3.7115526714682576,0.5337893351845443
1772470171390871000,6.52287109375,4.723678626945614,1.9075581070281564,-0.5160701751532033
1772470171400878800,6.53287890625,2.7486668399780987,0.22376345493942498,-1.3817273296326398
1772470171410887000,6.542886962890625,1.9374691150367258,-1.1166257560022175,-1.3719893410809336
1772470171420896000,6.55289599609375,1.0172329232275485,-1.4607447522461414,-1.3712614651978015
1772470171430903800,6.56290380859375,-1.556125865161419,-0.761111286323145,-1.9632536907650529
1772470171440912100,6.572912109375,-6.493552456727624,-0.3792439760411158,-3.7508915791660544
1772470171450920700,6.582920654296875,-12.494518964666128,-0.03184825968146324,-5.457431877678633
1772470171460929000,6.592928955078125,-18.94521252287626,0.8841716296069323,-4.501698256030679
1772470171470937000,6.60293701171875,-25.702063449335096,2.693139598545432,-3.807374513888359
1772470171480945000,6.61294482421875,-33.28059082465172,4.245798956640065,-4.250899786910415
1772470171490954000,6.6229541015625,-40.59168306882381,5.588261905115843,-3.6226354938700793
1772470171500962000,6.632962158203125,-44.48520208072662,7.448496973824501,-3.1249937229961153
1772470171510969900,6.642969970703125,-45.90144250533581,8.810631714236736,-2.6565505740776656
1772470171520978000,6.65297802734375,-45.96467842144966,10.17385015823245,-2.1513905365280808
1772470171530987000,6.662987060546875,-45.27724794595241,10.460317322105169,-1.9371821147888897
1772470171540994800,6.672994873046875,-43.800493139147754,9.260478591495751,-1.3576564259544015
1772470171551003000,6.6830029296875,-40.102863779091834,7.6069392308086154,-0.9862199453264474
1772470171561012000,6.693011962890625,-34.37357661573887,5.783593338558077,-1.196159238379076
1772470171571019800,6.703019775390625,-27.49809814081192,4.269907269719242,-1.3847693276770412
1772470171581028000,6.713028076171875,-20.983531537628174,3.2910105068877336,-1.7817811251968145
1772470171591036000,6.723035888671875,-15.448064818632602,2.9903520283162592,-2.3578721634075044
1772470171601045000,6.733044921875,-11.009013865172863,3.5383985830426212,-2.6421517541080712
1772470171611053000,6.743052978515625,-7.216350013682246,4.464933290474116,-2.5931325793951747
1772470171621060900,6.753060791015625,-3.4215468120753765,5.486095662105083,-2.3365590340048072
1772470171631070000,6.763070068359375,0.6850795284569263,6.495000317448377,-2.0427271865829826
1772470171641078000,6.773078125,4.911887661162019,7.558159125548601,-1.843280719037354
1772470171651085800,6.7830859375,9.086434276232122,8.578534438455105,-1.4566919697239995
1772470171661094000,6.793093994140625,13.341272571635246,9.660899466806649,-0.9067588705986738
1772470171671103000,6.80310302734375,17.10561458400488,10.44793130326271,-0.3718348322957754
1772470171681110800,6.81311083984375,19.976610749578473,11.019687234878539,-0.040775351975392546
1772470171691118800,6.823118896484375,21.589411857163906,11.44276417863369,0.5527924340792
1772470171701128000,6.8331279296875,22.543732689404486,11.417886927008627,1.2244178760707378
1772470171711135700,6.8431357421875,23.19492748391628,10.93380109553933,1.793713408922404
1772470171721144000,6.85314404296875,23.882603458607196,10.326694449079037,1.9374986333921551
1772470171731152100,6.863152099609375,24.09884382456541,9.600819384375214,1.7803512385241687
1772470171741161500,6.873161376953125,23.33368830435276,9.249856075194478,1.7008720436178146
1772470171751169300,6.883169189453125,21.583653147506713,8.922308128392697,1.881343615449965
1772470171761177300,6.89317724609375,20.01621561473608,8.62917975306511,1.7815766886658966
1772470171771186400,6.9031865234375,19.405876562225817,8.485240653207898,1.8270590675547718
1772470171781194200,6.9131943359375,19.078910214704273,8.190667339769005,1.7994428924851118
1772470171791202300,6.923202392578125,18.391687828999757,7.681897148898243,1.5217735137045383
1772470171801210400,6.93321044921875,17.826562713700532,7.361195122468471,1.476032630009949
1772470171811219200,6.94321923828125,17.599472452425957,7.016838664206862,1.6799498132288455
1772470171821227300,6.953227294921875,17.05299943062663,6.727862147861718,1.5105154759787023
1772470171831235300,6.9632353515625,15.60582961474657,6.780575500917434,1.1817511391244828
1772470171841244200,6.973244140625,13.430207577151059,6.887516703245043,0.6365078783158212
1772470171851252200,6.983252197265625,11.605133838194607,6.72797262249887,0.19739490531068293
1772470171861260300,6.99326025390625,10.397232212638855,6.1989844039857385,0.03386937197921797
1772470171871268400,7.003268310546875,9.804475578570365,5.63498449332416,0.09018793731951154
1772470171881277400,7.01327734375,9.819832137656212,4.74819289047718,0.24354710975252092
1772470171891285500,7.023285400390625,10.337660079729556,3.4846848207727072,-0.06705904546543025
1772470171901293300,7.033293212890625,10.107692801713943,2.119169936402887,0.16985862707681953
1772470171911302400,7.043302490234375,9.736144385144113,1.099693179771304,0.0922546331915073
1772470171921310500,7.053310546875,8.566674489313364,0.6886898279085755,-0.8937772239506244
1772470171931318300,7.063318359375,6.518322740846872,0.34077480038255453,-1.2542336070112883
1772470171941326300,7.073326416015625,5.061983530083299,-0.032656726520135994,-1.5295722047567366
1772470171951335400,7.08333544921875,3.2704490726351736,-0.06777326728254557,-2.4225185308411716
1772470171961343200,7.09334326171875,-0.5516939713180065,0.5302672620056197,-3.495944758194685
1772470171971351300,7.103351318359375,-6.051881287139654,1.216668284857273,-4.097168191835284
1772470171981360000,7.113360107421875,-13.109963231360911,2.190009020996839,-4.3990980055168265
1772470171991368200,7.1233681640625,-21.073622727441787,3.3060850341618058,-3.7862878867179153
1772470172001376500,7.13337646484375,-27.490726150739192,4.001383466555178,-3.2616163623601198
1772470172011384300,7.14338427734375,-32.50966724243164,4.64329722250253,-2.994726005616784
1772470172021393400,7.153393310546875,-37.043845626306535,5.456081632113456,-2.992424742937088
1772470172031401500,7.1634013671875,-41.740357429385185,6.2202060557126995,-3.5725966207206246
1772470172041409300,7.1734091796875,-46.2507247295618,6.682305096301436,-3.0695357474073766
1772470172051418400,7.18341845703125,-48.91589203307628,6.609708062124252,-1.0973472011670469
1772470172061426400,7.193426513671875,-47.87081833224296,6.008893209284544,0.9915998847991228
1772470172071434200,7.203434326171875,-42.77308602790832,4.827165304905176,1.5780708627268671
1772470172081442300,7.2134423828125,-35.00068443222046,3.9233448258459567,0.460589549341239
1772470172091451400,7.223451416015625,-27.90867800656557,3.134315678092837,-0.8534690328292548
1772470172101459200,7.233459228515625,-22.21933005489111,2.811857163384557,-1.2266586407348512
1772470172111467300,7.24346728515625,-17.28467351256013,3.0886911142542957,-1.233145664666593
1772470172121476400,7.253476318359375,-13.005913658821582,3.301822116020322,-1.7866848254598675
1772470172131484200,7.263484130859375,-9.109451579204201,3.1875679603308438,-2.5186729662165046
1772470172141492500,7.273492431640625,-5.087592603114247,3.0878125778540966,-2.932427662613988
1772470172151501300,7.283501220703125,-1.2088216630101203,3.3974335305601358,-2.81783682231605
1772470172161509400,7.29350927734375,2.2863860130816698,3.9390298862338065,-1.4388869945727287
1772470172171517400,7.303517333984375,6.133179514166712,4.261270374277234,-0.3867391175694763
1772470172181525200,7.313525146484375,9.828534499549866,4.3684848405882715,-0.1875233535071835
1772470172191534300,7.323534423828125,11.806500460147857,4.696930028490722,-0.7922196874227374
1772470172201542400,7.33354248046875,12.779444159793853,5.316277440103888,-1.4783935139223932
1772470172211550200,7.34355029296875,13.878173462969064,6.489849510556459,-1.3770596300825475
1772470172221559300,7.353559326171875,15.302947907167672,7.392077167466282,-0.5356372646061703
1772470172231567400,7.3635673828125,17.103880892080067,8.247209895724058,0.5130370910676196
1772470172241575200,7.3735751953125,18.858593393087386,8.730757967054844,1.5915040525346993
1772470172251583200,7.383583251953125,20.232783312952517,8.777639545217156,2.47442407464534
1772470172261592300,7.39359228515625,20.992406918001173,8.416307402235269,2.1760214121766386
1772470172271600000,7.40360009765625,21.045953799271583,8.139653776368498,1.4761919122248888
1772470172281608400,7.4136083984375,20.041993030071257,7.778386515316367,1.2344880191862582
1772470172291617300,7.4236171875,18.80582509497404,7.4168334230601785,0.9928246042884886
1772470172301625300,7.433625244140625,18.445574902009962,6.96348409063816,0.44440866826046255
1772470172311633400,7.44363330078125,19.04516108983755,6.313602132290601,-0.47666733537372197
1772470172321641200,7.45364111328125,20.10698251185417,5.873679267674684,-0.8771614585839211
1772470172331650300,7.463650390625,20.52231570961475,5.765398925697803,-0.8027070330370217
1772470172341658400,7.473658447265625,20.194017821228503,5.6539902225673195,-0.9775875799290835
1772470172351666200,7.483666259765625,19.610018494111298,5.059700972104072,-1.2608978872060774
1772470172361675300,7.49367529296875,19.238027594470978,5.538118110287189,-1.303403003849834
1772470172371683300,7.503683349609375,17.970723347353935,5.895133559113741,-0.6248745044715702
1772470172381691100,7.513691162109375,16.734609188270568,5.698668153205514,-0.6885447203494608
1772470172391699200,7.52369921875,16.01226638934612,5.25223079212904,-1.2568521189466118
1772470172401708300,7.533708251953125,15.921492477965353,4.690030624365806,-1.1098518779531121
1772470172411716000,7.543716064453125,16.167929244744776,4.521095030418038,-0.4120560027208179
1772470172421724400,7.553724365234375,15.828700797021389,4.398051419073343,-0.3935983723470941
1772470172431733200,7.563733154296875,15.631928517121075,4.083109563605487,0.12487013265211135
1772470172441741300,7.5737412109375,15.708600253391264,3.646959495526552,1.2979580363169312
1772470172451749400,7.583749267578125,15.030019439303874,3.003243366332352,2.3106993472136557
1772470172461757400,7.59375732421875,13.266692254686355,2.587149413332343,1.9845449005968867
1772470172471766300,7.603766357421875,10.206137978374958,3.1597295208126304,0.6539081451237201
1772470172481774300,7.6137744140625,6.627308016222715,3.816818634060025,-1.1346565027333795
1772470172491782400,7.623782470703125,2.4822674816220998,4.832772623392939,-2.208565983559191
1772470172501791200,7.633791259765625,-2.36236509091258,6.90389734468162,-1.756953265671432
1772470172511799300,7.64379931640625,-9.351040321430563,8.626907716479897,-0.8298669887717812
1772470172521807400,7.653807373046875,-18.680470868599414,9.033836073988676,-0.6656369421664625
1772470172531815200,7.663815185546875,-26.610756502866742,9.886695596617459,-0.7054649485554546
1772470172541824300,7.67382421875,-32.36713742485046,10.945450616800784,-1.107067800192535
1772470172551832300,7.683832275390625,-38.59734114296436,11.530788499045372,-2.416305063153803
1772470172561840400,7.69384033203125,-46.11887529594898,11.600735895496607,-4.333036802849174
1772470172571849500,7.703849365234375,-52.58300467431545,11.121987917923926,-5.74490851085484
1772470172581857300,7.713857177734375,-55.60827019510269,10.769418342590331,-6.378943496251106
1772470172591865300,7.723865234375,-54.06523995835781,10.51992101919651,-6.323263110083341
1772470172601873400,7.733873291015625,-48.93265144469738,9.559131867724657,-6.42639965943098
1772470172611882200,7.74388232421875,-40.929723768067355,8.46020791876018,-7.291309685337543
1772470172621890300,7.753890380859375,-32.50062585784197,8.038684049665928,-7.48943513341248
1772470172631898400,7.7638984375,-24.40291444966793,7.645752068805694,-4.81916758414954
1772470172641907200,7.7739072265625,-17.916503096866606,8.148748936972021,-2.6382997548550366
1772470172651915300,7.783915283203125,-16.700729130500555,7.414021288248896,-1.945123136921227
1772470172661923300,7.79392333984375,-14.1721435498178,7.874049367782473,-2.2618258645817635
1772470172671932200,7.80393212890625,-11.222275507581234,8.1491808986485,-3.017316315348446
1772470172681940200,7.813940185546875,-8.239750227367878,8.331210367447138,-3.9608687930762767
1772470172691948300,7.8239482421875,-5.371788314923644,8.654447465312481,-4.427291542083025
1772470172701956400,7.833956298828125,-2.7037165221393105,8.884953672510385,-3.8832621140435335
1772470172711965400,7.84396533203125,-0.05812836384177208,9.293051658320426,-2.4858617067217827
1772470172721973500,7.853973388671875,2.703411986234784,9.489482577437162,-0.6918110286690294
1772470172731980500,7.86398046875,5.132800110584498,9.863228211790323,0.8380627893827856
1772470172741989600,7.87398974609375,7.086036119073629,10.716159046089649,1.6047154162853956
1772470172751997400,7.88399755859375,9.432471819448471,11.258370903313159,2.2889789521843196
1772470172762005500,7.894005615234375,10.895247200739384,11.482384241360425,3.285555456352234
1772470172772013600,7.904013671875,11.057580619943142,12.648597765743732,4.184350216203928
1772470172782022400,7.9140224609375,11.300401534312963,14.447837975263594,4.6432039912611245
1772470172792030500,7.924030517578125,12.524226705187559,16.13869496695399,5.263411526834965
1772470172802038800,7.934038818359375,14.23247322309613,16.751731003463266,5.6492123406410215
1772470172812047400,7.94404736328125,15.80042396608591,16.381217775160074,5.559905579203367
1772470172822055700,7.9540556640625,17.895373799598215,16.411685394138097,5.449822571718692
1772470172832063700,7.964063720703125,21.649058808875083,17.52932047331333,6.869904474186897
1772470172842071600,7.974071533203125,27.73567823191881,17.307393878412245,8.693752470740675
1772470172852080600,7.98408056640625,31.341336579763887,13.557584249264002,9.362817268463969
1772470172862088700,7.994088623046875,30.40747167557478,10.458681829857825,10.563061072742938
1772470172872096500,8.004096435546876,26.71037306139469,8.874217758962512,11.731618529903889
1772470172882105600,8.014105712890625,23.502315855264662,8.488671212178469,10.742407586067914
1772470172892113400,8.024113525390625,21.27582053952217,9.227388807320594,7.920159961572289
1772470172902121500,8.03412158203125,19.60684804738164,10.52577792853117,4.345017748022079
1772470172912130600,8.044130615234375,16.600040558826922,11.68679739140272,1.5705243928700685
1772470172922138400,8.054138427734374,13.333330088198185,11.896565930998324,1.7690044996015726
1772470172932146400,8.064146484375,10.631125139665603,10.920708974254131,3.647004211451113
1772470172942154800,8.07415478515625,7.754429885667562,9.205036690258979,4.647367248420417
1772470172952163600,8.08416357421875,7.264593527847528,7.304552613270283,4.850587389285862
1772470172962171600,8.094171630859375,8.673463715949653,6.591156506389379,4.160447654829919
1772470172972179700,8.1041796875,10.365856246644258,6.089440325683355,2.305772704466432
1772470172982188500,8.1141884765625,10.954451084858178,4.979517428320646,0.7470805690135807
1772470172992196600,8.124196533203126,10.153598812842368,4.523803412593901,-0.09500153901316225
1772470173002204700,8.13420458984375,8.708988618317246,3.501360353502631,0.3347327437393367
1772470173012212500,8.14421240234375,6.678615594133734,1.9069651095710694,1.1747479092989117
1772470173022221600,8.1542216796875,4.690931372597813,0.7001847431302071,1.009849754173681
1772470173032229600,8.164229736328124,2.4035645317852494,-0.31227935826033354,0.46745391868539155
1772470173042237400,8.174237548828126,-0.75359309271276,0.7472619169298559,0.02022051414368907
1772470173052246500,8.18424658203125,-7.591094595944881,2.283519371604174,-0.5021748477263376
1772470173062254600,8.194254638671875,-18.096382694154975,0.8728866308089345,-0.7424993056379258
1772470173072262400,8.204262451171875,-24.8543734382987,0.8684202990498393,-0.691265377485007
1772470173082271500,8.214271484375,-27.78534622592926,1.3935083683192728,-1.0921861651420592
1772470173092279600,8.224279541015624,-30.088409233045578,1.9528521237380803,-0.6437741429917514
1772470173102287600,8.23428759765625,-33.951282931315895,3.166069829750061,-0.47903497782051563
1772470173112295700,8.244295654296875,-39.3027328070879,3.1151278702810403,-1.9881522774390876
1772470173122304800,8.2543046875,-42.93656978619099,3.743526018834114,-3.3953438648045062
1772470173132312600,8.2643125,-45.13069661777019,3.665989482428133,-3.666101710630953
1772470173142320600,8.274320556640625,-44.34283592927456,3.859116976085305,-3.3739497791200876
1772470173152329700,8.284329833984375,-39.683752231836316,4.08025972713232,-3.2938591743171215
1772470173162337500,8.294337646484376,-34.04143023523092,3.4369156461209056,-2.573816469028592
1772470173172345600,8.304345703125,-29.228159015643595,3.330595206040144,-1.769518586603552
1772470173182354400,8.3143544921875,-24.905643022286892,3.4247017689749595,-1.1930175062872468
1772470173192362500,8.324362548828125,-20.882781006634236,3.5389173462197183,-0.9204098678756505
1772470173202370600,8.33437060546875,-16.894917823648452,3.708467272673547,-0.98477427656278
1772470173212378600,8.344378662109374,-12.219431272941828,3.650200377143919,-0.852101178542152
1772470173222387500,8.354387451171876,-7.558449048405885,3.21672508123219,-1.3965503663636742
1772470173232395800,8.364395751953126,-3.862804140165448,3.6681910841256378,-1.921538993846625
1772470173242403600,8.374403564453125,-0.34897593475580213,4.263909490609168,-1.286539839593321
1772470173252412700,8.38441259765625,3.9493484511524435,4.728406824511289,-0.4799530790461227
1772470173262420700,8.394420654296875,7.425131880328059,5.250082089662552,0.47801856731958686
1772470173272428500,8.404428466796874,9.82632266871929,5.536226597452163,1.1055005508758127
1772470173282436600,8.4144365234375,11.639138983649016,6.237566355836391,1.1258981728687882
1772470173292445700,8.42444580078125,12.720110511815546,7.628617394131422,0.8773996512539685
1772470173302453500,8.43445361328125,13.372705820775032,8.75396465511918,0.8098715178389102
1772470173312461600,8.444461669921875,14.279649984812735,9.397978013694285,-0.40415765068642795
1772470173322470700,8.454470703125,15.196741448855398,10.419740981566905,-1.320255354451388
1772470173332478500,8.464478515625,16.29386331683397,10.587423945105074,-1.197723272825405
1772470173342486500,8.474486572265626,17.49296788794994,10.26116954524517,-0.5528620287166908
1772470173352495600,8.48449560546875,18.798636644774675,10.155448240101336,0.10652476701382547
1772470173362503400,8.49450341796875,20.409923840665815,9.857270764690638,0.5539665193598717
1772470173372511700,8.50451171875,21.915336586678027,9.670590839737653,0.8233220971729606
1772470173382519600,8.51451953125,22.932350898718834,9.349953110715747,1.1132920084696263
1772470173392528600,8.524528564453124,23.30414890613556,8.987586363989115,1.2146627902537583
1772470173402536700,8.53453662109375,23.05895366384983,8.315454579910636,1.2174111391138285
1772470173412544500,8.54454443359375,22.33999641571045,7.969343386936187,1.1469615652941167
1772470173422553600,8.5545537109375,21.583611061930654,7.699073324626684,0.9208875683899969
1772470173432561700,8.564561767578125,20.738037020134925,7.131010402309895,0.5379957738984376
1772470173442569500,8.574569580078125,19.49567315300703,6.878695683407783,0.09484101468920707
1772470173452577500,8.58457763671875,17.662689663839338,6.5825476679980754,-0.1323936965573579
1772470173462586600,8.594586669921876,14.787740961247682,6.383142701506614,0.08924969748817384
1772470173472594400,8.604594482421875,12.560122194433212,6.561290944957733,0.521743435016647
1772470173482602500,8.6146025390625,10.936463008224964,6.811597246646881,0.12863858180753887
1772470173492611600,8.624611572265625,10.372831930875778,6.095030108514428,-0.29263986115828156
1772470173502619400,8.634619384765625,10.894267542052269,5.282917606815696,-0.8587866476554423
1772470173512627700,8.644627685546874,10.968321789300441,5.190515217450261,-1.3959991622216998
1772470173522636500,8.654636474609376,10.047596937191486,4.9348833368241785,-1.2012970396589486
1772470173532644600,8.66464453125,8.497288818398118,3.846810452219844,-0.6148493695415556
1772470173542652700,8.674652587890625,6.829920254322886,2.6681945423811673,-0.06102496206611394
1772470173552660500,8.684660400390625,5.767836966499686,1.316566144544631,0.27691622232571245
1772470173562669600,8.694669677734375,5.295515807104111,0.1878624492684379,0.28793540979437526
1772470173572677600,8.704677734375,3.892636383849382,0.10855185239464044,-0.5132147491894662
1772470173582685400,8.714685546875,0.609569821703434,0.6089518359355628,-1.7005960031554102
1772470173592694500,8.724694580078125,-5.0109208668440575,1.4399194063603877,-3.1685645691752433
1772470173602702600,8.73470263671875,-13.284305068266391,3.160893888416886,-3.8624768079072234
1772470173612710400,8.74471044921875,-22.41427745745182,3.0714675922527905,-2.7003303868323565
1772470173622719500,8.754719482421875,-30.260515858244894,4.000272290442884,-0.7611446040708572
1772470173632727600,8.7647275390625,-37.341619781613346,7.096967262932658,0.43138752985224127
1772470173642735400,8.7747353515625,-45.509920391273496,9.664192663133143,1.8322260949291287
1772470173652743700,8.78474365234375,-51.747839798331256,11.092196006250381,3.5936063832625744
1772470173662752500,8.79475244140625,-53.994676475834844,10.673079782819748,4.621178329674899
1772470173672760600,8.804760498046875,-52.142667968201636,10.448877059680223,3.4987224062144753
1772470173682768600,8.8147685546875,-48.362462031745906,10.244023180133103,1.6545646120816468
1772470173692777700,8.82477783203125,-42.39622372283935,9.650687284871935,0.8302871869452297
1772470173702785500,8.83478564453125,-35.02647353799343,9.15137874982953,1.1498841747425497
1772470173712793600,8.844793701171875,-28.066632187771795,9.030666211780906,2.0155511564962563
1772470173722802700,8.854802734375,-21.855713015842436,8.742067296576499,3.0442963844716546
1772470173732811000,8.86481103515625,-16.964313431435823,8.660658010390401,3.1948288912445304
1772470173742819000,8.874819091796875,-12.941499346578121,7.982866885375976,1.8494947712466119
1772470173752827000,8.884826904296874,-9.155082280522585,7.383483526644111,-0.2653187235124409
1772470173762836000,8.8948359375,-5.022883691838383,7.196994740349054,-2.2409495191611346
1772470173772844000,8.904843994140625,-0.40959436184763903,7.050786526516079,-3.2850340628266332
1772470173782851800,8.914851806640625,3.3490140753060578,7.150987606933713,-3.4226416215747593
1772470173792861000,8.92486083984375,6.5788751169651745,7.321452310144901,-3.282108530768752
1772470173802869000,8.934868896484375,9.805770879077912,7.5018065392076965,-3.1113369535654782
1772470173812877000,8.944876953125,13.039663952732086,7.807591567012667,-3.1577175964683293
1772470173822886000,8.954885986328126,15.547973638105391,8.360939150756597,-3.555871111369133
1772470173832894200,8.964894287109376,17.67949116103649,8.974784165561198,-3.823577460670471
1772470173842902000,8.974902099609375,20.05062524933815,9.089078068739175,-3.9159114609748125
1772470173852910000,8.98491015625,21.87484091016054,9.330115606823563,-3.889005333870649
1772470173862919200,8.994919189453125,22.769750937533377,9.06424757886529,-3.563698151732981
1772470173872927000,9.004927001953124,23.14652907145023,8.508955875316262,-3.191786747069657
1772470173882935000,9.01493505859375,23.338193799078464,7.987546567624807,-3.344169557884335
1772470173892944100,9.024944091796876,23.22298219653368,7.298508072409033,-4.044562683068215
1772470173902952000,9.034951904296875,23.175673332870005,6.6224249203562735,-4.485123845587671
1772470173912960000,9.0449599609375,23.135437184071538,6.183320386385917,-4.715670384795963
1772470173922968800,9.05496875,22.55041728173494,6.082059567782283,-4.739414248476923
1772470173932977000,9.064976806640624,21.319192063736914,6.235332897695899,-4.6848055831938975
1772470173942985000,9.07498486328125,19.994071587467193,6.136496675890684,-4.660367307507991
1772470173952993000,9.084992919921875,18.758897339582443,6.128935300725698,-4.646695925030112
1772470173963001900,9.095001953125,18.098437873119114,6.083181265288591,-4.337712977966666
1772470173973010200,9.10501025390625,17.62995877610445,5.892973166209459,-3.866351311253011
1772470173983018000,9.11501806640625,16.722946807527542,5.772893665367365,-3.403223219877481
1772470173993027000,9.125027099609374,15.314321534097195,6.0336120554775,-3.0386291524901985
1772470174003035100,9.13503515625,13.89530112338066,6.286491422525048,-2.843790763261914
1772470174013043000,9.14504296875,12.576217589187621,6.364187825667858,-2.6606854819253085
1772470174023052000,9.155052001953125,11.219378617095947,6.543142709326744,-2.5640485237300394
1772470174033060000,9.16506005859375,9.815625918138027,6.633665276294947,-2.677857858261466
1772470174043068000,9.17506787109375,8.399830899208784,6.4454036351084705,-2.486777068001032
1772470174053076000,9.185075927734376,6.4529778697550295,6.120138246285915,-1.9282935826733707
1772470174063085000,9.1950849609375,4.199064970254898,4.840141106334328,-1.059677687986195
1772470174073092900,9.2050927734375,2.281334574910998,2.8176743252307177,-0.3751211604900658
1772470174083101000,9.215100830078125,1.249328445443511,1.460899504416436,-0.5857895715348422
1772470174093110000,9.225110107421875,0.7554834365040063,0.923713585596159,-0.9259060541391372
1772470174103117800,9.235117919921874,-0.5377653992086648,0.9651477850727737,-1.13464145129472
1772470174113126100,9.245126220703124,-3.301690598595142,2.3863103223845363,-1.0912193659365177
1772470174123135000,9.255135009765626,-7.571805958107113,4.118851908116042,-0.33023134066686033
1772470174133143000,9.26514306640625,-12.253061155343055,3.942915787756443,1.0859477091439067
1772470174143151000,9.275151123046875,-16.124695667696,3.366264777575433,2.781102544158697
1772470174153160200,9.28516015625,-18.433927718836067,3.866087984141707,3.813351834732294
1772470174163168000,9.29516796875,-20.35532481999397,5.102307357165217,3.5882290741384026
1772470174173176000,9.305176025390624,-23.367249213171004,6.17952800836563,2.960880434638262
1772470174183184000,9.315183837890626,-26.467609430170057,7.0707011872977015,2.3487150434836743
1772470174193193000,9.32519287109375,-30.2197372731328,7.823306438016891,2.7118630037158726
1772470174203201000,9.335200927734375,-34.45631685826778,7.9626973730504504,3.887513634008169
1772470174213208800,9.345208740234375,-37.67268362758159,6.714328712549805,5.303268320927024
1772470174223218000,9.355218017578125,-38.29564133864641,4.907980716851354,6.510430526292324
1772470174233226000,9.36522607421875,-35.95199848386049,3.300816153848171,5.89164630151987
1772470174243233800,9.37523388671875,-31.84950354404449,2.2488133844040332,3.6218086876571176
1772470174253243000,9.385242919921875,-27.12102540786266,1.9964685626246035,1.2653076664723455
1772470174263251000,9.3952509765625,-22.540026820623872,2.1639321843236683,0.032277883270382876
1772470174273259000,9.405259033203125,-18.11225012537241,2.5339900700747964,0.1612659361027181
1772470174283267000,9.41526708984375,-14.006444453573225,2.852292049625516,0.8902940580099821
1772470174293276200,9.425276123046874,-10.070800118124485,2.812151177895069,0.7142236437462269
1772470174303284000,9.435283935546876,-6.407797834813595,2.8295260910660027,-0.16479337957650422
1772470174313292000,9.4452919921875,-3.1127135026156902,3.214949303731322,-1.1086027546748518
1772470174323301000,9.455301025390625,-0.1812573153823614,3.5629011561363932,-1.8248492825508116
1772470174333309000,9.465308837890625,2.1508172666847702,3.833419055727124,-2.0803230500057337
1772470174343317000,9.47531689453125,4.172168195500969,4.147428891041875,-2.0491642338931557
1772470174353326000,9.485326171875,5.731477366873621,4.376672238697111,-2.120609613817185
1772470174363334000,9.495333984375,7.52722096644938,4.5677045136407015,-2.703137845468521
1772470174373342000,9.505342041015625,9.346392787885666,5.162851549977064,-2.742263402676582
1772470174383350000,9.51535009765625,10.956397542750835,5.294624995744228,-2.148363589922339
1772470174393358800,9.52535888671875,12.808346429151296,5.228557071074843,-2.0784192622110247
1772470174403367200,9.5353671875,14.852509493756294,5.132955593407154,-2.623102770245075
1772470174413375000,9.545375,16.776278584742546,4.919630822634697,-3.3771365924626586
1772470174423384000,9.555384033203126,18.293365401935578,4.514045111906528,-3.522404602836072
1772470174433392000,9.56539208984375,19.68154176157713,4.3780075789541,-3.1830756173476575
1772470174443400000,9.57539990234375,20.906131487083435,4.351006759303808,-2.5542946069568395
1772470174453409000,9.585408935546875,22.08967608549595,4.181110795891285,-2.161566770366579
1772470174463417000,9.5954169921875,22.623143495249746,4.144777207489311,-1.9250465635761618
1772470174473425000,9.6054248046875,22.65342406722307,4.247653060074151,-1.7527841632932424
1772470174483433000,9.615432861328125,22.458654359316824,4.509922771279514,-1.4608606337107717
1772470174493442000,9.625442138671875,21.698158647608757,4.90492775902152,-1.2678408382117747
1772470174503449900,9.635449951171875,20.38943517938852,5.156737451010942,-1.4838343898020683
1772470174513458000,9.6454580078125,18.477861553108692,5.431385582274198,-2.0970807080611586
1772470174523467000,9.655467041015624,15.855716229718922,5.742910030514001,-2.403370616648346
1772470174533474800,9.665474853515626,12.8699585434556,5.847786117005348,-2.492060561361909
1772470174543483100,9.675483154296876,10.091106408572196,5.903108775776625,-2.4336378907486793
1772470174553492000,9.685491943359375,8.037964503219722,5.616877758747339,-2.4206547827959057
1772470174563500000,9.6955,6.78696081804037,5.259357283008098,-2.411766981332749
1772470174573508000,9.705508056640625,5.913569379514455,4.950542093726992,-2.5380934137403965
1772470174583517200,9.71551708984375,5.110681217756867,4.628349536478519,-2.5998379222527146
1772470174593525000,9.72552490234375,4.318248983561992,4.00195746705085,-2.111489903294295
1772470174603533000,9.735532958984376,3.8955209993749853,3.179212804439664,-1.2327286082983016
1772470174613540900,9.745540771484375,3.35598449884057,1.97395964756608,-0.4374935916423797
1772470174623550000,9.755550048828125,2.990645458304882,0.06956354823280125,0.13861688192114233
1772470174633558000,9.76555810546875,3.2714614645481106,-1.8619046093560754,0.27810455532744527
1772470174643565800,9.77556591796875,2.8607202707529065,-2.5789596771359444,0.1276445292688906
1772470174653575000,9.785574951171874,1.5073042588472365,-2.861073906496167,0.015424802016466855
1772470174663583000,9.7955830078125,-1.085599772489071,-2.7492209667295215,-0.02254924706891179
1772470174673590800,9.8055908203125,-4.549959890374541,-1.4643532981321215,0.29232845712155103
1772470174683600000,9.815599853515625,-8.035575562256573,0.025936405289173126,0.8692625220276415
1772470174693608000,9.82560791015625,-11.383741496300697,-0.003198065388947725,1.5486235267072914
1772470174703616000,9.835615966796874,-13.474134397161006,0.6366033015143125,2.1764893219493326
1772470174713624000,9.8456240234375,-14.854516741925478,2.683448810136318,2.095438786073029
1772470174723633200,9.855633056640626,-16.451878288316724,4.449000685065984,1.5321578373357654
1772470174733641200,9.86564111328125,-18.300398369312287,4.818846973893046,1.5080194213792681
1772470174743649000,9.87564892578125,-20.05722567051649,4.930383102795481,2.187647990953922
1772470174753658000,9.885658203125,-21.889900532126426,4.933438398712873,2.8276106128335
1772470174763666200,9.895666259765624,-23.63211010991335,4.872545830854773,3.1472976170018314
1772470174773674000,9.905674072265626,-24.83180855526924,3.9946903986573217,3.6012639122784136
1772470174783683000,9.91568310546875,-24.329753351867197,2.8896920982152223,4.552306161239743
1772470174793691100,9.925691162109375,-22.775201019632814,1.0972348268337546,4.986720491567254
1772470174803699000,9.935698974609375,-21.22788506839275,0.37549627741277214,4.65829926906228
1772470174813708000,9.9457080078125,-20.385366907036303,0.04043269428387284,4.276429364964366
1772470174823716000,9.955716064453124,-19.637461796832085,0.11569558666944503,3.937411345121264
1772470174833724000,9.965723876953126,-18.439588228815794,0.42935836211219425,3.1810277449071407
1772470174843732200,9.975732177734375,-16.707421906137466,0.5173647815410047,2.37369575548321
1772470174853741000,9.985740966796875,-14.721497095489502,0.658693918095529,1.3243448157221078
1772470174863749000,9.9957490234375,-12.387374933242796,1.1275804268673062,0.149240567266196
1772470174873757200,10.005757080078125,-9.581568155938387,1.650260923538357,-0.773475897051394
1772470174883766300,10.015766357421874,-6.313984994128346,2.104222688770294,-1.326108902785182
1772470174893774000,10.025774169921876,-3.0918922483831643,2.5998715322613712,-1.3539204542964696
1772470174903782100,10.0357822265625,0.0935761093199253,2.9459421009644866,-1.3349198396198452
1772470174913791200,10.045791259765625,2.7896365637481213,3.4974054783970114,-1.5078912649549543
1772470174923799000,10.055799072265625,4.826107904806733,4.067739852777123,-1.666851992855221
1772470174933807000,10.06580712890625,6.854031197750568,4.227877223241329,-2.01022002460137
1772470174943815000,10.07581494140625,8.80081466909945,4.374478528045118,-2.551836692410707
1772470174953824000,10.085823974609376,10.581417398166655,4.5129707606732845,-3.24895269562006
1772470174963832000,10.09583203125,12.342020710778236,4.658125666061044,-4.051224771305918
1772470174973840000,10.10583984375,13.784321459317207,4.990264447784424,-4.61344773542285
1772470174983849000,10.115848876953125,14.98847396147251,5.202669181102514,-4.604352574819326
1772470174993857000,10.12585693359375,16.19932859161496,5.28067128919363,-4.205278730203211
1772470175003865000,10.135864990234374,17.399861734229326,5.297422517508268,-3.9654207572922107
1772470175013874200,10.145874267578124,18.539201280212403,5.368491026943921,-3.933919119091332
1772470175023882200,10.15588232421875,19.886783763659,5.24769840939641,-4.363286979684234
1772470175033890000,10.16589013671875,20.856559354662895,5.209751832839847,-4.580867362074554
1772470175043899100,10.175899169921875,20.622465352106094,5.48449816378057,-4.153679183608293
1772470175053907200,10.1859072265625,19.699435145664214,5.263640074893832,-3.2460140118196605
1772470175063915000,10.1959150390625,18.36319940114021,5.36853077443242,-2.5857901076778766
1772470175073923000,10.205923095703126,17.084397608453035,5.283439584863186,-2.111153072555363
1772470175083932200,10.21593212890625,15.744620830321312,5.076007963782549,-1.6357719410672782
1772470175093940000,10.22593994140625,14.300301143175362,4.57798450011462,-1.2100900755107402
1772470175103948000,10.235947998046875,12.737296624416112,4.182076718313992,-0.8914800529241561
1772470175113957000,10.24595703125,11.126934142154454,3.9365626193374395,-0.7673077298104762
1772470175123965000,10.25596484375,9.454317740553616,3.6685102330774066,-0.6337254810556769
1772470175133973200,10.26597314453125,7.963231626057624,3.6194399126991628,-0.4853825932815671
1772470175143982000,10.275982177734376,6.555265693318844,3.6935061426460742,-0.5484123192988336
1772470175153990100,10.285990234375,5.320046437248587,3.054631900525093,-0.2914705251179635
1772470175163998200,10.295998291015625,4.616228890573979,2.100442293448746,0.39537323653250933
1772470175174007300,10.30600732421875,4.30823904620111,0.6152402685552835,1.3115575226023792
1772470175184015000,10.31601513671875,4.1488603851497174,-0.9022362786076963,1.915785252625495
1772470175194023200,10.326023193359376,3.558060145846009,-1.7844940374173224,1.6552474797792731
1772470175204031000,10.336031005859375,1.9173428573310374,-2.608168235963583,0.5089585530497134
1772470175214040000,10.3460400390625,-0.5392623597681522,-2.7091853089392184,-0.2091952697522938
1772470175224048000,10.356048095703125,-3.58245224430263,-1.8770640384346247,0.3988208927683532
1772470175234056000,10.366055908203125,-7.163001285332441,-1.2921408744707703,1.6704700372219086
1772470175244065000,10.37606494140625,-10.204987639296053,-1.8248640417285262,2.3647671836182473
1772470175254073000,10.386072998046876,-11.659757408785818,-1.8207640590637921,2.3784824052378535
1772470175264081000,10.396080810546875,-12.834569250166416,-0.5515541975211352,2.5925594556823373
1772470175274090000,10.406090087890625,-15.724807876348494,0.9359037165403365,3.596578677071631
1772470175284098000,10.41609814453125,-19.141326631128788,2.060858617209643,4.704149458350241
1772470175294106000,10.426106201171875,-22.207256170737743,2.9886542844876645,5.447521309038996
1772470175304115000,10.436114990234374,-25.005306342566012,3.1704777093201875,5.814634958031773
1772470175314123300,10.446123291015626,-26.86089680033922,2.4963275711566206,5.145151058113575
1772470175324131000,10.456131103515625,-27.28511239273548,1.3258352004103362,4.159020252375305
1772470175334139100,10.46613916015625,-26.771577179419992,-0.35154235117770727,3.7877483146592974
1772470175344148200,10.476148193359375,-25.917434046721457,-1.4056525412298737,3.3875814141094684
1772470175354156000,10.486156005859375,-24.71796473394632,-1.7845532202586532,3.021348639604449
1772470175364164000,10.4961640625,-22.686150278782844,-1.8022860069565474,2.5128128420114515
1772470175374173200,10.506173095703126,-19.962292301368713,-1.529206294053793,1.7430223554745314
1772470175384181000,10.516180908203125,-16.645040561026335,-1.300465050701797,1.1303748798914253
1772470175394189000,10.52618896484375,-13.395333832168578,-1.0068157202400267,0.9774008251853287
1772470175404198100,10.5361982421875,-10.663870055925846,-0.2997505699463188,0.7144802488557994
1772470175414206000,10.5462060546875,-8.105810543477535,0.4334137749828398,0.5228342259280383
1772470175424214000,10.556214111328124,-5.34408139283061,1.2411609210789203,0.21580212067142127
1772470175434223000,10.56622314453125,-2.1561533670157194,2.1466142620369792,-0.36577640903964637
1772470175444231000,10.57623095703125,1.3590624933600426,2.9988708503365515,-0.9503469601735473
1772470175454239200,10.5862392578125,4.222125527846813,3.621619887086749,-1.6458990750670432
1772470175464247000,10.5962470703125,6.570133592104911,4.287911420704424,-2.261112017223984
1772470175474256100,10.606256103515625,8.665323079591989,5.028948106443882,-2.1190723212473093
1772470175484264200,10.61626416015625,10.554583167254924,5.720638577473164,-2.121442703640461
1772470175494272000,10.62627197265625,12.379490901994705,6.154582952201366,-2.558869952048361
1772470175504281000,10.636281005859376,13.684227930927277,6.521220800375938,-2.8760382513940335
1772470175514289200,10.6462890625,14.66433786894083,6.568687484949827,-2.765167892923951
1772470175524297000,10.656296875,15.540904430371523,6.4524710892766715,-2.5210563542217015
1772470175534306000,10.66630615234375,16.032237164229155,6.235451555639505,-2.8649615615844723
1772470175544314000,10.676314208984374,16.15790703242421,5.868945809412002,-3.5606840646088123
1772470175554322000,10.686322021484376,15.903244873613119,5.479004242539405,-3.598644377429783
1772470175564331000,10.6963310546875,15.33868440645933,5.462625939190388,-2.896640894439816
1772470175574339000,10.706339111328125,15.184218651890754,5.748188263177871,-1.3734588291116059
1772470175584347100,10.71634716796875,14.50396610519886,5.09195196736753,-1.0571369174621998
1772470175594355200,10.726355224609375,14.130730173933506,5.255323497447371,-0.8125304348498582
1772470175604364000,10.736364013671874,13.905797967475651,5.4950324172765015,-0.5529055390648544
1772470175614372000,10.7463720703125,13.992996942979097,6.866667976483702,-0.0036459552869200704
1772470175624380200,10.756380126953125,13.796574207168817,7.602257210472226,1.263853960532695
1772470175634389200,10.76638916015625,13.332358612817526,7.100887066724896,2.0453085813783107
1772470175644397000,10.77639697265625,12.35225218193531,6.848309897494316,1.6827786069139836
1772470175654405000,10.786405029296875,11.19382098199129,7.452752293181419,1.0143472847886383
1772470175664414200,10.796414306640624,9.952909067237377,7.539045844277739,0.6821506353981792
1772470175674422000,10.806422119140626,8.538049283331633,6.797892546421289,0.26465485277622935
1772470175684430000,10.81643017578125,7.551862071231007,6.02400660726428,-0.33726854582726956
1772470175694439200,10.826439208984375,6.544142241758108,5.247328991562128,-0.7623693966254591
1772470175704447000,10.836447021484375,5.359546672987937,4.707438563023508,-0.8867575544469058
1772470175714455000,10.846455078125,4.24838926539421,4.273911829185486,-1.034238272433728
1772470175724463000,10.856463134765624,3.2004496537357565,4.251959232835471,-1.8396742189779876
1772470175734471700,10.8664716796875,3.037604193356633,3.5256282410576936,-2.664532512742281
1772470175744480000,10.87647998046875,4.869077277961373,-0.4041144691318273,-3.0059035254523154
1772470175754487800,10.88648779296875,5.581153534415364,-6.300020181661844,-1.833939620848745
1772470175764497000,10.896496826171875,0.5154927771240473,-8.137718424391746,-1.5211635651126503
1772470175774505000,10.9065048828125,-2.709827698495984,-6.752166568034887,-2.415786884498596
1772470175784512800,10.9165126953125,-5.915655538138747,-5.008031575143337,-2.3761931252568957
1772470175794521900,10.92652197265625,-12.089371645355223,-3.278717427025735,-3.312474150677025
1772470175804530000,10.936530029296875,-15.73656611868143,-2.848671813301742,-2.1642026718281206
1772470175814537700,10.946537841796875,-15.960989791095257,-2.798359383907914,-0.6205542301196605
1772470175824546800,10.956546875,-14.905637857353687,-2.428198037782311,-0.2326018643029034
1772470175834555000,10.966554931640625,-15.810781693971157,-1.960119338262081,-0.3367109484771266
1772470175844562700,10.976562744140624,-17.691439957505462,-0.8922270718991756,-0.886353869016841
1772470175854570800,10.98657080078125,-18.98785456377268,-0.3936950741872191,-1.3277598848626018
1772470175864579800,10.996579833984375,-21.81730992769003,-0.3542863161236047,-0.9650802727945148
1772470175874587600,11.006587646484375,-24.797183816611767,0.5150228215247392,0.8321719777785241
1772470175884596000,11.016595947265625,-24.404752186489105,0.8670319864965975,2.606679750971496
1772470175894604800,11.026604736328125,-20.739587172186372,0.049127603523433205,3.5233535741239783
1772470175904612900,11.03661279296875,-16.13511652394533,-1.9360117558352647,2.4165410638667644
1772470175914621000,11.046620849609376,-12.816594033014773,-4.366234139052033,-0.29961788347736
1772470175924630000,11.056630126953126,-11.720682125347851,-7.745585484954714,-0.2847491079084575
1772470175934637800,11.066637939453125,-10.925237849855423,-7.94740628041625,2.812852019640803
1772470175944646000,11.07664599609375,-9.88328081973791,-4.635426927518845,4.623313295876979
1772470175954655000,11.086655029296875,-8.35612035229802,-2.697504223495722,5.009321030431986
1772470175964662800,11.096662841796874,-6.060962419217825,-2.1237895590275526,4.214203502675891
1772470175974670800,11.1066708984375,-3.7138276306629177,-1.3945219292759894,3.0532635347813364
1772470175984678700,11.1166787109375,-1.742743830794096,-0.33633068045526743,2.130277898133546
1772470175994687700,11.126687744140625,-0.016385317611694334,0.473030768969655,1.6124528786696493
1772470176004695800,11.13669580078125,1.5247083981126546,1.3314064246714115,1.4725754752933977
1772470176014703900,11.146703857421874,2.8533038570165634,2.0562629599824547,2.024716021335125
1772470176024712700,11.156712646484374,3.8579222133427855,2.0948165625214576,2.5624241373986005
1772470176034721000,11.166720947265626,4.893018710041046,2.512576987428963,1.18787824370265
1772470176044728800,11.176728759765625,5.3127071804016825,3.0221447584182024,-0.1715872775003314
1772470176054738000,11.186738037109375,5.384995002499222,3.60676338647753,-1.2854881385833024
1772470176064746000,11.19674609375,5.499143944248557,4.1967882574945685,-2.1263874665662645
1772470176074753800,11.20675390625,5.772495605960488,4.6633030686989425,-2.4993939729899166
1772470176084763000,11.216762939453124,6.378180110663175,4.940593531164526,-2.492918054974079
1772470176094771000,11.22677099609375,6.94485303992629,4.737502277375757,-2.223508262755722
1772470176104778800,11.23677880859375,7.459998026525974,4.638803710475564,-1.7376786563590167
1772470176114786800,11.246786865234375,7.719402411428093,4.964139826446772,-1.2712781191840767
1772470176124796000,11.2567958984375,7.707590393081307,5.361662057706713,-1.1722916752532124
1772470176134803700,11.2668037109375,7.6178855722367755,5.60876225683093,-1.3070406296998263
1772470176144811800,11.276811767578126,7.639402407518029,5.755525181937218,-1.4786203084155916
1772470176154820900,11.28682080078125,7.906144880223274,6.062317340958118,-1.3999470230646431
1772470176164828700,11.29682861328125,8.113476548060774,6.6387973784863945,-1.1037253578968345
1772470176174837000,11.3068369140625,8.75715614463687,7.045577267435193,-0.9908776349391788
1772470176184845800,11.316845703125,9.504179211309552,7.093040444877743,-1.2357646149933337
1772470176194854000,11.32685400390625,9.683741997733712,6.69076488161087,-1.5153671537935733
1772470176204862000,11.336862060546874,9.558635024118423,6.171126675245166,-1.503245338845253
1772470176214871000,11.34687109375,9.475575632637739,6.009154490569234,-1.0956820444338022
1772470176224878800,11.35687890625,9.307504546564816,5.936233631265163,-0.44625367507264013
1772470176234887000,11.366886962890625,8.931107520920039,5.552185214084386,0.1181047667030245
1772470176244894700,11.376894775390625,8.409580724328755,5.051118437197804,0.3549252716142684
1772470176254903800,11.38690380859375,7.625582556480169,4.69617804107964,0.2967803950291127
1772470176264912000,11.396911865234374,6.812054342764616,4.282961397081613,0.03091952746398747
1772470176274919700,11.406919677734376,6.494493536970019,3.6032477795720097,-0.04192768208198249
1772470176284928800,11.4169287109375,6.484493536481261,2.5344167710542678,0.07132014610916376
1772470176294936800,11.426936767578125,6.558633708447218,0.8376502630591393,0.16630261509567498
1772470176304944600,11.436944580078125,6.657968527424335,-0.7089648464351892,0.7864508947629482
1772470176314953700,11.44695361328125,6.635398383697867,-1.7638064925670622,1.3185226854398846
1772470176324961800,11.4569619140625,6.374202439203858,-2.2951859901309013,1.47228233756572
1772470176334969900,11.466969970703126,5.494194212886691,-2.937130725738406,1.3024451186031103
1772470176344978700,11.476978759765625,4.496178615826368,-3.2778234007954596,1.1976815525755284
1772470176354987000,11.486987060546875,2.998676204547286,-3.021921178795397,1.4104717780798672
1772470176364994800,11.496994873046875,-6.90788904466629,-2.677798529289663,2.056135241949558
1772470176375004000,11.50700390625,-16.620515191578864,-2.4115862179383636,0.8354067219160497
1772470176385012000,11.517011962890624,-20.348719722640514,-0.6260258664637803,-0.04098755168765783
1772470176395019800,11.527019775390626,-18.573197073316575,0.5837149572178721,0.13511135801821947
1772470176405027800,11.53702783203125,-16.030519838917254,0.27146774766147136,1.9412801977574825
1772470176415037000,11.547036865234375,-14.99748495092392,-0.5971081072762608,3.62939461274147
1772470176425044700,11.557044677734375,-14.764875633966922,-1.0764736322253943,4.843096156747639
1772470176435052800,11.567052734375,-14.326777646690607,-1.031855322819948,5.257408487027884
1772470176445062000,11.577061767578124,-13.343884215438365,-1.1737503496289252,5.154942968809604
1772470176455069700,11.587069580078126,-11.89084930691719,-2.0222095914721487,4.559401672458648
1772470176465077800,11.597077880859375,-10.26283192549944,-3.543674185357988,3.366407108655572
1772470176475086800,11.6070869140625,-8.418340369367598,-4.9027273263677955,1.632700863058865
1772470176485095000,11.617094970703125,-6.571978343188762,-5.5803404644668095,-0.19555588984787464
1772470176495103000,11.62710302734375,-4.948188808599114,-5.506614718520641,-1.2019848027274012
1772470176505111800,11.63711181640625,-3.8361891049623487,-4.960297179543971,-0.8581101366333663
1772470176515119900,11.647119873046876,-2.904181811338663,-4.22275593470484,0.16248963267877697
1772470176525128000,11.6571279296875,-1.8638900840848682,-3.6615427321523426,0.9498691135287284
1772470176535137000,11.667136962890625,-0.8729284971892833,-3.266883196847141,1.291957480727881
1772470176545144800,11.677144775390625,-0.08350655072629451,-2.8629268408864736,1.2752158970244227
1772470176555153000,11.68715283203125,0.4302361678600311,-2.369390751765668,1.094173685697466
1772470176565160700,11.69716064453125,0.788672004878521,-1.7910151097491382,0.8290539918884634
1772470176575169800,11.707169677734376,1.2681401134192942,-1.2293553324729203,0.4988762811049819
1772470176585177900,11.717177734375,1.8683745360225439,-0.8051072991117835,0.21703253924921154
1772470176595185700,11.727185546875,2.2318945444375275,-0.6232151929572224,0.23384967240691185
1772470176605194800,11.73719482421875,2.372289103555679,-0.3932502530291676,0.4197458996362984
1772470176615202800,11.747202880859374,2.5570868680238723,0.011033435189723969,0.560586448956281
1772470176625211000,11.7572109375,2.765402286201715,0.23208733890950678,0.46873058755770325
1772470176635219700,11.7672197265625,2.9567846897572276,0.367533043448627,0.34853228264153
1772470176645228000,11.77722802734375,3.1268495799958704,0.5568368871644139,0.2598011291347444
1772470176655235800,11.78723583984375,3.4176141488015648,0.6962345441997051,0.18011055650003252
1772470176665245000,11.797244873046875,3.7002959489166733,0.8514064012110233,0.025163594285771248
1772470176675253000,11.8072529296875,3.6758249400049445,1.087332295370102,-0.145385645403713
1772470176685260800,11.8172607421875,3.3012831868380306,1.1728247592166066,-0.278124575202167
1772470176695270000,11.827269775390626,3.103088180658221,1.248484980356693,-0.47014841846637423
1772470176705278000,11.83727783203125,3.2515421275913714,1.3214838733330367,-0.627168387562409
