time,seconds_elapsed,z,y,x
1772469517645515300,0.175515380859375,-0.09027414516508579,-0.10257920772582292,0.16226345924008637
1772469517655522000,0.18552197265625,-0.23059096287190914,-0.1723338580839336,0.1787183714892715
1772469517665529000,0.195529052734375,-0.2656798119097948,-0.2668902106128633,0.19305428229048846
1772469517675536100,0.2055361328125,-0.31011341239809986,-0.3172951405957341,0.13556293771062045
1772469517685543200,0.215543212890625,-0.5740104325443506,-0.2954984654597938,-0.19349384275153278
1772469517695551200,0.22555126953125,-0.7940770787924528,-0.19523469506949184,-0.5129770314434543
1772469517705558000,0.23555810546875,-0.8172212230145931,-0.09162029907703399,-0.5867813225185499
1772469517715565300,0.2455654296875,-0.8485399058640003,-0.15063129097223282,-0.5409000074399635
1772469517725572000,0.255572021484375,-0.6567308013290166,-0.297075797779113,-0.27318185810297724
1772469517735579100,0.2655791015625,-0.38244624268114563,-0.400759898006916,0.1331982544058934
1772469517745586200,0.275586181640625,-0.12555588642656804,-0.42925490173771974,0.4723416176617145
1772469517755593000,0.285593017578125,0.17727672131359576,-0.42068128079026934,0.6832895763002336
1772469517765600300,0.295600341796875,0.32867022882997987,-0.4795647007830441,0.6544033812947571
1772469517775607000,0.30560693359375,0.27700959969758987,-0.5605762198232114,0.3290377469681203
1772469517785614000,0.315614013671875,0.07325754391252993,-0.48358211973085996,-0.09808273655679077
1772469517795622100,0.3256220703125,-0.17464052759110926,-0.35277547316923735,-0.5075733823016285
1772469517805629000,0.33562890625,-0.3965717986673116,-0.2494074531532824,-0.7174728548005223
1772469517815636200,0.34563623046875,-0.35117549062669273,-0.07719371431767941,-0.48012631672117856
1772469517825643000,0.35564306640625,-0.06423544854521751,0.04417933346629142,-0.10770992167778312
1772469517835650300,0.365650390625,0.16206746174395084,0.12815569366142154,0.31648948676865546
1772469517845657000,0.375656982421875,0.20416063658595085,0.28238120973333714,0.5218133949803189
1772469517855664000,0.3856640625,0.10790449440181255,0.2965874297402799,0.4531231224507093
1772469517865671200,0.395671142578125,0.03983341321647167,0.32016587372645733,0.20998192661795764
1772469517875678000,0.405677978515625,-0.11070318520963192,0.3857771406695246,-0.15644121936000882
1772469517885686300,0.415686279296875,-0.660691521653533,0.46786768711805343,-0.6003858137726783
1772469517895693000,0.425693115234375,-1.3367676594436169,0.562775775694102,-0.866997499705106
1772469517905700000,0.4357001953125,-1.7484774060100317,0.7376834297887981,-0.8029404034014791
1772469517915707100,0.44570703125,-1.502622238510847,0.826406399989128,-0.4831584144260734
1772469517925714000,0.4557138671875,-0.6824141086399554,0.5664737534292041,-0.41198067246228454
1772469517935721200,0.46572119140625,0.6713520318776369,0.38826632713675496,-0.46982568931803104
1772469517945728000,0.47572802734375,1.8955916287720203,0.256124924840033,-0.4768206627719104
1772469517955735300,0.4857353515625,2.743955593547225,-0.1492182093039155,-0.4639082819677889
1772469517965742000,0.4957421875,3.01086523951292,-0.39884412751346826,-0.2039260971777141
1772469517975749000,0.5057490234375,2.68217689050436,-0.15164675162509084,-0.12319690221026539
1772469517985757200,0.515757080078125,1.9005179792582987,0.2752235930636525,-0.42384208290874953
1772469517995764000,0.525763916015625,1.0073621020764112,0.5287345360130071,-0.8983079992480576
1772469518005771300,0.535771240234375,0.28054771069586276,0.6581121726848185,-1.3649128268234432
1772469518015778000,0.545778076171875,-0.12021744800806045,0.5588951348684728,-1.422984345911443
1772469518025785000,0.55578515625,-0.10171031593680381,0.1376399997130036,-1.0222773471355437
1772469518035792100,0.565792236328125,0.11290624821186065,-0.19563626160770653,-0.6468640718311071
1772469518045799000,0.575798828125,0.15061141722798346,-0.08348872280865907,-0.41808834168761966
1772469518055806200,0.58580615234375,-0.12063479663729668,0.3988175317674875,-0.2424263620942831
1772469518065813000,0.59581298828125,-0.5490846656024456,0.81083006067276,-0.07753419831842183
1772469518075821000,0.605821044921875,-0.8844500081568956,0.9338795172363519,0.10303601158261298
1772469518085828000,0.615828125,-0.9949427654862403,0.8529396021276712,0.18076120242848992
1772469518095835100,0.625835205078125,-0.8332242633104324,0.7437611422672867,0.10295081751719116
1772469518105842200,0.63584228515625,-0.5723626653373242,0.6770254013389349,0.028352818781137466
1772469518115849000,0.645848876953125,-0.5308160184621811,0.6773588710770011,0.08816066014245152
1772469518125856500,0.6558564453125,-0.44361996556818484,0.6818328016206622,0.18723492848724127
1772469518135863800,0.66586376953125,-0.14758710097074507,0.6669310005649924,0.29743381743654607
1772469518145870600,0.67587060546875,0.06813888572454452,0.648872781305015,0.3598291910730302
1772469518155878000,0.6858779296875,0.23098200801610946,0.6304808000460267,0.3861879134275019
1772469518165885700,0.6958857421875,0.42136604818403717,0.6101455757647752,0.43498920760601756
1772469518175892700,0.705892822265625,0.4242126697868108,0.4991150582969188,0.4426598883643746
1772469518185899800,0.715899658203125,0.33235680838823317,0.4071317711263895,0.34387598126828667
1772469518195906600,0.725906494140625,0.27206395998895166,0.4224950522139668,0.21970921111255884
1772469518205913900,0.735913818359375,0.1992950763761997,0.39808950975388285,0.1642296082139015
1772469518215920600,0.745920654296875,0.017394202393293378,0.36813977717012164,0.18577523119822142
1772469518225928000,0.755927978515625,-0.1780412759453058,0.38075492859333754,0.13332096747010946
1772469518235934700,0.765934814453125,-0.14492752637267112,0.38386926122158765,0.06163622583225369
1772469518245941800,0.775941650390625,0.31855858466029163,0.3863952725678682,0.18948153837025164
1772469518255949800,0.78594970703125,0.9550111525923013,0.38004210414886475,0.5281830396100878
1772469518265956600,0.79595654296875,1.2550170124739408,0.3335702758312225,0.7411128197155893
1772469518275964000,0.8059638671875,1.0635001688838004,0.13328706520050762,0.6236513924174011
1772469518285970700,0.815970703125,0.5402075316637754,-0.04627455217987299,0.013381313490122556
1772469518295977700,0.825977783203125,-0.025048516538739202,-0.1426873462304473,-0.5932295122772455
1772469518305984800,0.83598486328125,-0.4193213906139135,-0.1940717887699604,-0.9690927233062684
1772469518315991600,0.845991455078125,-0.4603033893436193,-0.15927520067691803,-0.9873441270507871
1772469518325998800,0.855998779296875,-0.10625029745399951,-0.08591887256503104,-0.6163194420941174
1772469518336005600,0.866005615234375,0.28843349550962444,-0.05612579184770584,-0.04295402945503592
1772469518346013700,0.876013671875,0.5333452446788549,-0.0519467525973916,0.5809031146675347
1772469518356020700,0.886020751953125,0.4775450315237045,0.05804243912398815,1.0270927845932543
1772469518366027800,0.89602783203125,0.10101473488807677,0.10417933639883994,1.2549527150660753
1772469518376034800,0.906034912109375,-0.3544464751213789,0.10330781426131724,1.2352166257217525
1772469518386041600,0.91604150390625,-0.6466828700453042,0.06857786166369914,0.8810739558525383
1772469518396049000,0.926048828125,-0.7319844874948263,0.034896541336178775,0.5008255154766142
1772469518406055700,0.9360556640625,-1.048510105022788,-0.05877630635648966,0.14136851871684192
1772469518416062700,0.946062744140625,-1.6794038697838782,-0.20983546735197303,-0.2448073389466852
1772469518426069800,0.95606982421875,-2.1036077717423436,-0.33683658415079115,-0.5056201293420046
1772469518436077800,0.966077880859375,-1.9253478846102952,-0.2862403693795204,-0.6901450682181864
1772469518446084900,0.9760849609375,-1.4936474894165992,-0.25379823545813557,-0.8077935425210744
1772469518456091600,0.986091552734375,-1.1053384921818972,-0.2461003744319081,-0.7798820377666503
1772469518466098700,0.9960986328125,-0.9810019184172153,-0.177826464150846,-0.5508158733092248
1772469518476105700,1.006105712890625,-1.1971493453949689,-0.20788696363270281,-0.1786873187638819
1772469518486112800,1.01611279296875,-1.2956284243255853,-0.7096320781722665,-0.12312193727791308
1772469518496119800,1.026119873046875,-0.9533370819002389,-1.0552364906683565,-0.3761317988373339
1772469518506126600,1.036126708984375,-0.48225160177946086,-1.3643883645579218,-0.5233252243153751
1772469518516134000,1.0461337890625,-0.029263503885269163,-1.481883109603822,-0.4599501919917762
1772469518526141700,1.0561416015625,0.5741910498082637,-1.5261816855356096,-0.12326572966277599
1772469518536148700,1.066148681640625,0.7902940531224012,-1.2546876343891025,0.5743832113794982
1772469518546155800,1.07615576171875,1.5917326005935668,-0.18160715173333883,0.616173750013113
1772469518556162800,1.086162841796875,3.2972213442265987,0.5133937590181827,0.45210605436265466
1772469518566169900,1.096169921875,3.556595918512344,0.284736102296412,0.5702168854802847
1772469518576176600,1.1061767578125,0.5424994419932365,-0.2501981651395559,0.8380999065227807
1772469518586183700,1.11618359375,-1.161005434346199,-0.1134486845254898,0.4392567288573831
1772469518596190700,1.126190673828125,-1.314448860129714,0.5712123262584209,-0.21641696463413534
1772469518606198800,1.13619873046875,-0.701426852145791,1.2336463076651096,-0.5066460383236407
1772469518616205600,1.14620556640625,-0.003848492121696472,1.3662071044176816,-0.19541827147547156
1772469518626212900,1.156212890625,0.6725339351385832,1.1960440145015716,0.34586306343227624
1772469518636219600,1.1662197265625,0.501173744392395,0.9854472073882817,0.6751504012472928
1772469518646226700,1.176226806640625,-1.1327905627310275,0.5192012762531638,1.4211509930044413
1772469518656233700,1.186233642578125,-1.5824048002779483,-0.12565700871348381,1.7225050526246428
1772469518666240800,1.19624072265625,-1.13239425688982,-0.8161363503873348,1.4633108033418654
1772469518676247800,1.206247802734375,-0.6604810937732458,-0.43029111291766164,1.097724948438257
1772469518686254800,1.2162548828125,-0.31776188132464883,0.7009203639283775,0.8247413893863559
1772469518696263000,1.226262939453125,-0.1904196960031986,1.3121196865297853,0.8089763956300914
1772469518706269700,1.236269775390625,-0.09261047915816306,1.081309235688299,0.5987692088888957
1772469518716276700,1.24627685546875,0.09554419452250003,0.09705839847773313,0.18066910369824618
1772469518726283800,1.25628369140625,-0.03630114743709564,-1.188785567805916,-0.35807613686062395
1772469518736290800,1.266290771484375,-0.14663023863732813,-1.5089407740078866,-0.7161267008885741
1772469518746297900,1.2762978515625,-0.11440613138079643,-0.7175054418958723,-0.709611108449474
1772469518756304600,1.2863046875,0.04107259962260723,0.08974164572358131,-0.7900785106755792
1772469518766311700,1.296311767578125,0.5981348199754953,0.3439404248066246,-0.9588560645174234
1772469518776318700,1.306318603515625,1.2662334030151365,0.2532414783582091,-1.0067408283729105
1772469518786326500,1.316326416015625,1.995841809028387,0.48749680895656344,-0.9792424344640225
1772469518796333800,1.326333740234375,2.681056362041831,1.0367895643517375,-0.5654213217668235
1772469518806340600,1.336340576171875,3.2888638502478598,1.1744428619377314,1.8027812431275843
1772469518816348000,1.346347900390625,3.3914281526654957,0.4219632834248245,1.8930268928505478
1772469518826354700,1.356354736328125,3.832245335772633,0.2149057563535869,0.5506497960273176
1772469518836361700,1.36636181640625,4.196179770207404,0.7689677719771861,-0.6817573982968926
1772469518846368800,1.37636865234375,4.528716611337662,0.9907781931526959,-1.0819478258527815
1772469518856375800,1.386375732421875,5.019448456692695,0.661922232492268,-1.0354814774278551
1772469518866382800,1.3963828125,5.663020501241087,0.6090912444062531,-1.3563707700580359
1772469518876390700,1.406390625,6.453276560440659,0.9971453900970518,-1.8232552913576363
1772469518886398000,1.41639794921875,7.10444154433608,1.1586638396561144,-2.1543960019543764
1772469518896404700,1.42640478515625,7.48156513068974,1.3541335125252603,-2.047302823935449
1772469518906411500,1.43641162109375,7.488203545790911,1.9598817301139235,-1.749681228841841
1772469518916418800,1.446418701171875,7.182431961989402,2.37788663130179,-1.3707687132447957
1772469518926425600,1.456425537109375,6.879392433500289,2.559344583822787,-0.6880609554205089
1772469518936433000,1.466432861328125,6.965915701699257,2.9672219126194714,-0.020640746566466986
1772469518946439700,1.476439697265625,7.193167875537275,3.3135014478981493,0.49057435323838144
1772469518956446700,1.48644677734375,7.98645818786621,3.2604829744160173,0.5908791497588157
1772469518966454800,1.496454833984375,8.518010703909397,2.2827204763114453,0.624159780330956
1772469518976461600,1.506461669921875,9.172132784044742,1.417085643261671,1.072710480299592
1772469518986468900,1.51646875,9.458649632278084,0.8099614611446857,1.3110058800689874
1772469518996475600,1.5264755859375,9.6450443105489,-0.07502119258418678,1.5683078858643769
1772469519006483000,1.53648291015625,10.336238522493838,-1.3391245978333055,1.6589643083453178
1772469519016489700,1.54648974609375,10.770030921530722,-2.3376173108860847,1.5945955888092518
1772469519026496800,1.556496826171875,9.982579398357867,-2.951303043475747,1.5611628364153205
1772469519036503800,1.56650390625,8.009815682578086,-3.5979870825648304,1.2799696674227714
1772469519046510600,1.576510498046875,5.170176778298616,-3.7763323098927732,1.1588186648916452
1772469519056519000,1.586518798828125,0.24030571667850015,-2.943374296303093,0.9273716697122901
1772469519066525700,1.596525634765625,-8.651970261543989,-1.130178918927908,-0.6608952275320887
1772469519076532700,1.60653271484375,-21.554836218345162,1.6616040091991424,-2.639009364429116
1772469519086539800,1.616539794921875,-34.18612044571638,4.234451925456524,-4.8227621015101665
1772469519096546600,1.626546630859375,-44.305108548426624,4.820497079187631,-6.716553402861952
1772469519106553900,1.636553955078125,-50.00343475632667,5.104961671066284,-6.285916837507486
1772469519116560600,1.646560546875,-49.19729022312164,4.764826045370102,-5.142712432789803
1772469519126567700,1.656567626953125,-44.55952988421917,4.7406554807096715,-5.380317073816061
1772469519136575500,1.666575439453125,-39.14339681613445,4.08958577388227,-6.2839499213486905
1772469519146582500,1.67658251953125,-34.34697619358301,3.328970235186815,-6.461707119655609
1772469519156589600,1.686589599609375,-29.800847844195363,2.6245044537365434,-6.225891700133681
1772469519166596400,1.696596435546875,-24.96926472284794,2.7045117641702294,-6.276340615388751
1772469519176603600,1.706603759765625,-20.324452711868286,3.388881390792131,-6.074755966770649
1772469519186610400,1.7166103515625,-16.40909245503545,4.485977832068502,-5.167197470226884
1772469519196617700,1.72661767578125,-13.324613697779178,5.946984157860279,-4.4911137336522335
1772469519206624500,1.73662451171875,-10.519511853873729,7.128337968230247,-4.735124150067567
1772469519216631300,1.74663134765625,-7.098598663526773,7.823883361122012,-4.971946116283536
1772469519226639600,1.7566396484375,-3.727290923348069,8.122899040922523,-4.064368038256466
1772469519236646400,1.766646484375,-0.14083236601352692,8.379429916214942,-2.7221415288850666
1772469519246653400,1.7766533203125,3.937057124856114,8.503619774985314,-2.030455734030902
1772469519256660500,1.786660400390625,8.19808141541779,8.442850541245937,-1.837045916301012
1772469519266667500,1.79666748046875,11.779275768613815,8.545075236445665,-1.4027180952131748
1772469519276674600,1.806674560546875,13.778417788231373,8.834656732946634,-0.3870940684869885
1772469519286681300,1.816681396484375,14.650983881849049,9.082999625608325,0.6177662068363279
1772469519296688600,1.826688720703125,15.248574511945247,9.341260685694218,0.8479657592378557
1772469519306695400,1.8366953125,15.93423505516052,9.415302657982707,0.3811677471779287
1772469519316703500,1.846703369140625,16.49875226769447,9.366781495919824,-0.5145175023511052
1772469519326710500,1.85671044921875,16.947971368443966,9.198518102145194,-1.4384928806886077
1772469519336717600,1.866717529296875,17.214048070716856,9.032587535232304,-1.9966386584945022
1772469519346724600,1.876724609375,17.474041069161892,8.87295168454945,-2.064529853068292
1772469519356731400,1.8867314453125,17.798614384067058,8.832661759737134,-1.8643191231518983
1772469519366738400,1.896738525390625,17.986595454746485,8.742353712302446,-1.4146110698416827
1772469519376745500,1.906745361328125,18.27205724096894,8.623425719583034,-1.15891248065494
1772469519386752500,1.91675244140625,18.725986419105528,8.462059684106707,-1.1836419213071465
1772469519396760600,1.926760498046875,19.027672194898127,8.25136350827217,-1.2086373924843967
1772469519406767600,1.936767578125,18.61697074859142,8.10600577378869,-0.9560526244692504
1772469519416774400,1.9467744140625,18.142169462817908,7.935402538889646,-0.6645367989048362
1772469519426781400,1.956781494140625,18.063716103827954,7.764181464353204,-0.6252953602321446
1772469519436788500,1.96678857421875,17.699326326841113,7.766640547943115,-0.5019214940197766
1772469519446795500,1.97679541015625,17.739539094763995,7.781901245439052,-0.3759497202686965
1772469519456802600,1.986802490234375,17.7791381147027,7.7696701248973605,-0.6039167643778026
1772469519466809600,1.9968095703125,17.082363472276924,7.665917489477992,-0.9651786186024546
1772469519476816400,2.00681640625,16.472289792704583,7.671097522464394,-1.3715163167417048
1772469519486824400,2.016824462890625,15.385937156021594,7.776543517798185,-1.4291346852347253
1772469519496831500,2.02683154296875,13.854298081862925,7.899166857904195,-0.9736914492733776
1772469519506838500,2.036838623046875,12.204342424881457,7.7600775361657135,-0.31517157257050277
1772469519516845600,2.046845458984375,11.375106938946246,6.988405765926838,0.029549481219798324
1772469519526852600,2.0568525390625,11.407322278374433,6.002098726838827,-0.2707994930110872
1772469519536859400,2.066859375,11.036928292536734,5.56122309154272,-1.000888814409077
1772469519546866400,2.076866455078125,10.019937361371516,5.219104767596721,-1.6526513258062303
1772469519556873500,2.08687353515625,8.530952018547058,4.092960511012375,-1.5570764438845217
1772469519566880500,2.096880615234375,7.088827211096882,3.1443580564185973,-1.3772786796607077
1772469519576888600,2.106888671875,4.895570732611417,3.069300477346778,-1.6394322171404956
1772469519586895400,2.116895263671875,0.7039145773082971,3.9351393085360526,-2.0135455157622695
1772469519596902700,2.126902587890625,-5.801984735295176,4.162940640689432,-1.6796612055458127
1772469519606909400,2.136909423828125,-12.439004582715034,3.6438501313343643,-1.0875919692195952
1772469519616916500,2.14691650390625,-17.775495374286173,3.368941011047363,-1.2503858455419539
1772469519626923500,2.156923583984375,-22.538941947996616,3.4619890048399564,-2.0212128355197607
1772469519636930600,2.1669306640625,-27.796265094828605,3.7076252688914537,-2.525589905998111
1772469519646937600,2.1769375,-33.253267933440206,3.618178222200274,-2.7394915998756884
1772469519656945400,2.1869453125,-37.82815242171287,3.5024352892577646,-3.3986645336598156
1772469519666952700,2.19695263671875,-41.459819655561446,3.4886814891934392,-3.623521629054844
1772469519676959500,2.20695947265625,-44.19569072685241,3.6042668934866784,-3.2797003005832432
1772469519686966500,2.216966552734375,-45.313380751085276,3.5025229675412177,-2.249014606064558
1772469519696973600,2.2269736328125,-44.07602272942066,2.984021948511898,-1.2464502596586942
1772469519706980400,2.23698046875,-40.3635745704174,2.4269486222431063,-0.8648575650669634
1772469519716987600,2.246987548828125,-34.77992921918631,1.6340432175785302,-0.959500865226984
1772469519726994400,2.256994384765625,-28.660078557670115,1.042551488879323,-1.5822794203326105
1772469519737001500,2.26700146484375,-23.632135828876493,1.0414596750546246,-2.117152166839689
1772469519747009500,2.277009521484375,-19.75364370571375,1.4728135218329728,-2.713177593445778
1772469519757016300,2.287016357421875,-16.668614328837393,2.1865204482287166,-2.939401885540783
1772469519767023600,2.297023681640625,-14.227387882655858,2.8777871408879756,-2.336489329769462
1772469519777030400,2.307030517578125,-11.69299215438962,3.9009178899824617,-1.4202753792136906
1772469519787037700,2.31703759765625,-8.69122558261156,4.949419227176905,-0.6395823903903365
1772469519797044500,2.32704443359375,-5.05039830622971,5.570428726783394,-0.2991473433561623
1772469519807051500,2.337051513671875,-1.034662781456113,6.078070205885171,-0.2549717727495357
1772469519817058600,2.34705859375,2.7487124326854944,6.561186900061369,0.05654419992286712
1772469519827066400,2.35706640625,6.116504858219623,7.0641212243855,0.27372436748184265
1772469519837073700,2.36707373046875,9.275093392303585,7.599903340822458,0.2815207935117185
1772469519847080400,2.37708056640625,12.172070971351861,8.099434578704834,-0.10666121634244918
1772469519857087500,2.38708740234375,14.640382992857694,8.637403976053,-0.33762561563663185
1772469519867094500,2.397094482421875,16.51302512319684,9.136026866918801,-0.47912433660440146
1772469519877101300,2.407101318359375,17.816283311748503,9.780846865701674,-0.8610707400046288
1772469519887108600,2.417108642578125,18.983375957053898,10.339030199038982,-1.4062499226011336
1772469519897115400,2.427115478515625,19.848771136128903,10.802837797111271,-1.7191744468972086
1772469519907122700,2.437122802734375,20.455133101701737,11.268854887926578,-1.5583562545619905
1772469519917130500,2.447130615234375,21.161801361632346,11.600454155945776,-1.2644659549511967
1772469519927137500,2.457137451171875,21.987214074409007,11.608137111663817,-1.1609592571169138
1772469519937144600,2.46714453125,23.11484798502922,11.425575727945565,-0.755564392785728
1772469519947151400,2.4771513671875,24.059199211919307,11.22026475228071,-0.608056348400563
1772469519957158700,2.48715869140625,24.570756403160093,10.625583872151374,-1.4982986762233077
1772469519967165400,2.49716552734375,25.457550928616524,9.92932945420742,-2.61512989166975
1772469519977172700,2.5071728515625,26.05808871808052,9.872163213396071,-2.784586002360284
1772469519987179500,2.517179443359375,25.2945862257719,9.486811312401294,-3.1970816386073824
1772469519997186300,2.527186279296875,23.769320778298376,8.993622721543908,-3.1440377384230493
1772469520007194600,2.537194580078125,21.9618972623229,8.856067769765854,-2.8448160146564243
1772469520017201400,2.547201416015625,19.853627343988418,8.631242530813813,-2.2085297432020305
1772469520027208400,2.55720849609375,18.00773527340889,8.163664182031154,-1.4886784688323735
1772469520037215500,2.567215576171875,17.335683568829296,7.73889797001481,-2.4128581375703213
1772469520047222500,2.577222412109375,15.63803793991208,7.375709970033168,-3.1642835308551787
1772469520057229600,2.5872294921875,13.274599666810035,7.276370474880934,-3.2861928774729368
1772469520067236400,2.597236328125,11.531415106511115,7.257279989963769,-2.39287713355422
1772469520077243600,2.60724365234375,10.245829352772235,7.457402749335765,-1.3027471702896058
1772469520087251500,2.61725146484375,9.66584218390584,8.208155650186539,-0.4002623237483203
1772469520097258500,2.627258544921875,9.104372668504714,9.27210297831595,-0.4415810801517218
1772469520107265500,2.637265625,4.54285561132729,10.509219592440127,-1.207632818551734
1772469520117272600,2.6472724609375,-4.337428900328279,11.373027210062741,-2.5496049878358837
1772469520127279900,2.65727978515625,-14.946516980230808,12.030330258321762,-3.9196632147237658
1772469520137286700,2.66728662109375,-27.344333812510964,12.378463312512636,-4.223538901776075
1772469520147293700,2.677293701171875,-39.40263461229801,12.241758840084076,-3.1126272856369614
1772469520157300700,2.68730078125,-49.518515396642684,11.69194819829464,-1.17711237340793
1772469520167307800,2.697307861328125,-57.26738180296421,11.004157657313346,0.32183051900304854
1772469520177315600,2.707315673828125,-60.891637299251556,9.874449863028525,0.29869618378886953
1772469520187323000,2.717322998046875,-61.17739368450641,8.144486018830538,-0.1411912076548673
1772469520197329700,2.72732958984375,-59.138969455814355,5.510775929853319,-0.31064368334989995
1772469520207336700,2.737336669921875,-54.562742905282974,2.9901684884428974,-0.7447508108917623
1772469520217343700,2.74734375,-46.537145131683346,1.2665833854965864,-2.235637384227663
1772469520227350800,2.757350830078125,-36.906959952092166,0.5795581297993659,-4.145778785747289
1772469520237357800,2.76735791015625,-28.479996715807914,0.5646363819342106,-5.119667657288908
1772469520247364900,2.77736474609375,-21.29126126976013,1.1922298630408943,-4.857421326959133
1772469520257373000,2.787373046875,-15.055470691424608,2.430668227288127,-3.8282349310874935
1772469520267379700,2.797379638671875,-9.404211939647793,3.8813787845149634,-2.420313860403746
1772469520277386800,2.80738671875,-3.9333378120720384,5.4782449486047025,-1.0336513393912463
1772469520287393800,2.817393798828125,1.3001707439303398,6.726023826518654,-0.29006496916897595
1772469520297400800,2.82740087890625,6.080791739803552,7.630106171384453,0.09161861857660114
1772469520307408000,2.837407958984375,10.294987643694878,8.36578133009076,0.17157156847454608
1772469520317414700,2.84741455078125,13.39956460160613,8.83304228348732,-0.0024736966371536255
1772469520327421700,2.857421630859375,15.777794785648583,9.29013606313467,-0.2639955120846629
1772469520337429800,2.8674296875,17.962417291301488,9.93430724261999,-0.3542211419329047
1772469520347436500,2.8774365234375,19.526566303920745,10.24272437249422,-0.4209846476510167
1772469520357443800,2.88744384765625,20.353293021905422,10.15516299341917,-0.4911575234211981
1772469520367450600,2.89745068359375,20.845348224818704,9.802008896195888,-0.8204955685101449
1772469520377458000,2.9074580078125,21.133162127125264,9.227316326606273,-1.306020931263268
1772469520387464700,2.917464599609375,21.088955905652046,8.609795838159322,-1.686573615282774
1772469520397471700,2.9274716796875,20.54852333306074,8.13405347214341,-1.6275754828691482
1772469520407478800,2.937478759765625,19.95206083021164,7.6993579867869615,-1.4044883197560905
1772469520417485800,2.94748583984375,19.378497556912897,7.290423550152778,-1.2775490161471068
1772469520427494000,2.957493896484375,19.06877343609333,6.960543945533037,-1.0176328823305665
1772469520437500700,2.967500732421875,18.838942936199903,6.579668897691369,-1.124113627539575
1772469520447508000,2.977508056640625,18.232605520546436,6.160006146293878,-1.3619493008427321
1772469520457514800,2.9875146484375,17.327478050541878,5.787977837252616,-1.539200741584599
1772469520467521800,2.997521728515625,16.16868795415759,5.6375096278876065,-1.629123881354928
1772469520477528800,3.00752880859375,15.347707086348533,5.449496408504247,-1.5378333987541495
1772469520487535600,3.01753564453125,14.976310060948133,5.249930113971233,-1.444386468771845
1772469520497543000,3.02754296875,14.585902045607567,5.089254983368516,-1.5131803112737834
1772469520507550700,3.03755078125,14.34823778334856,4.966289697957039,-1.7269995875649153
1772469520517557800,3.047557861328125,14.571360310035944,4.840291912981868,-1.8276779301054775
1772469520527564800,3.057564697265625,14.517052381265163,4.662052191855013,-2.232465622323751
1772469520537571600,3.067571533203125,13.30963240174651,4.532876069104671,-2.6389099957078694
1772469520547579000,3.077578857421875,11.924798338270186,4.430234902058541,-2.44170283152163
1772469520557585700,3.087585693359375,11.111690980315208,4.091984651717543,-1.9047423189550636
1772469520567593000,3.097593017578125,10.660546464461088,3.4940205121338366,-1.386522893346101
1772469520577599700,3.107599853515625,10.763943710571526,2.6343933950662612,-0.9130683460064232
1772469520587606800,3.117606689453125,11.702618060868978,1.4714764280103145,-0.6763247057236731
1772469520597614800,3.12761474609375,12.525182982999086,0.4811439327985048,-0.7330655607298016
1772469520607621600,3.13762158203125,12.86606095149517,-0.5509782242640853,-0.3973148721195757
1772469520617629000,3.14762890625,12.924203343862294,-0.7351748810339719,0.16613756072707472
1772469520627635700,3.1576357421875,12.16116379289031,-0.10505553471148013,0.4943946787115186
1772469520637642800,3.167642822265625,9.529094456857443,0.940913215265423,0.7555183616869151
1772469520647649800,3.17764990234375,5.733605611073971,1.9433672331646084,0.6226270178057253
1772469520657656600,3.187656494140625,1.1607827315062285,2.7110452575922013,-0.9298505539812147
1772469520667664000,3.197663818359375,-4.321427613598108,5.0099312712848185,-3.843961492529511
1772469520677671700,3.207671630859375,-12.520768673688172,10.382228704774379,-7.131250640806555
1772469520687678700,3.2176787109375,-27.29617154688835,17.053511471801997,-8.0930603674978
1772469520697685800,3.227685791015625,-45.527114687180514,22.29734268437624,-5.676549260377883
1772469520707692800,3.23769287109375,-59.49674361405372,23.844717087805268,-0.1560899947695434
1772469520717699800,3.247699951171875,-63.64597926225662,23.559154763817787,2.3348088293366134
1772469520727706600,3.25770654296875,-61.43637429103851,20.857277147543428,0.9306386356189846
1772469520737714000,3.2677138671875,-57.06545053286552,17.080690570628644,-0.7701055438354611
1772469520747720700,3.277720703125,-49.544341911816595,13.23898942424655,-1.4731640888363122
1772469520757728800,3.287728759765625,-39.655400582098956,9.542988542175292,-2.567007081274688
1772469520767735800,3.29773583984375,-30.625734487271306,6.631036096835136,-4.743154896309972
1772469520777742800,3.307742919921875,-23.267576540541647,4.7237741962745785,-6.465615233010054
1772469520787750000,3.31775,-17.483064918094872,3.8134564641505477,-6.694698129406571
1772469520797756700,3.327756591796875,-13.40288585498333,3.9418604334846137,-5.650075094950199
1772469520807763700,3.337763671875,-10.390629453372954,4.792397942906618,-3.477532903191447
1772469520817770800,3.347770751953125,-7.793290654459595,5.835484269315004,-1.2613263417512177
1772469520827777800,3.35777783203125,-4.925559043639898,6.789020088657736,0.18283762511005625
1772469520837785600,3.36778564453125,-1.6756062310665845,7.427514976072311,0.9291922362029552
1772469520847793000,3.37779296875,1.4965847119122744,7.8268328585773705,1.1147986136402934
1772469520857799700,3.387799560546875,4.56118855587542,8.14869399191439,0.5908432016626
1772469520867806700,3.397806640625,7.554401234319806,8.313269052565097,-0.3263496038626879
1772469520877813800,3.407813720703125,10.362282479810714,8.51134598532319,-0.8987795622825622
1772469520887820800,3.41782080078125,12.582380787992477,8.72292946538627,-1.1459218469828367
1772469520897827800,3.427827880859375,14.412867199647426,8.875745114660262,-1.2857844911813736
1772469520907835000,3.4378349609375,16.07909010081887,9.143760676041245,-1.4870540825009344
1772469520917841700,3.447841552734375,17.344301759570836,9.238728531980515,-1.8059399994194507
1772469520927849700,3.457849609375,18.28364129577875,8.837280067187548,-1.342199913625419
1772469520937856800,3.467856689453125,19.461213249522448,8.68910084554255,-0.42697796978168184
1772469520947863800,3.47786376953125,20.501237850272656,8.139349824985862,-0.23401859923303125
1772469520957870800,3.487870849609375,21.082671126294134,7.1942895730435845,-0.507938123960793
1772469520967878000,3.4978779296875,21.440248885178566,6.457731201761961,-1.0264446228828281
1772469520977884700,3.507884765625,21.89818905252218,5.929144549787044,-1.4729045611172913
1772469520987891700,3.5178916015625,22.361123374891278,5.538163702994584,-1.61527217387408
1772469520997898800,3.527898681640625,22.06380514665842,5.22212791481018,-1.7853281501539051
1772469521007906600,3.537906494140625,20.651106924700734,5.155562562012672,-1.9177786183997987
1772469521017913900,3.547913818359375,19.305147074019906,5.3660383730947965,-1.722324581491202
1772469521027920600,3.557920654296875,19.28448305617571,5.586294404435157,-1.0388200472660363
1772469521037928000,3.567927978515625,19.40624364197254,5.701926862740517,-0.7238441433981061
1772469521047934700,3.577934814453125,19.264908587133885,5.7731064313352105,-0.5146807300888001
1772469521057941800,3.587941650390625,19.2191077899456,5.6637523226469755,-0.5592318194769322
1772469521067948800,3.59794873046875,18.653593383067847,5.739923123657703,-0.8566949360731989
1772469521077955800,3.607955810546875,17.85677781922221,5.844608656013012,-1.157439193231985
1772469521087964000,3.6179638671875,16.697765604519844,5.875330542013049,-1.455120482623577
1772469521097970700,3.627970703125,15.559472352719306,5.601068779718876,-1.7636647460088133
1772469521107978000,3.63797802734375,15.237743321329354,5.062002819305658,-1.5121983144991098
1772469521117984800,3.64798486328125,15.664907242137193,4.152536735574901,-0.9125109313193708
1772469521127991600,3.657991455078125,16.08264048677683,2.9864868773207065,-0.3486852812461555
1772469521137998600,3.66799853515625,15.840063902556896,1.9074287815600632,-0.16012056545987724
1772469521148005400,3.67800537109375,14.676039997172355,1.5399068440273402,-0.458861885298416
1772469521158012700,3.6880126953125,12.613012073099613,2.3495123313412067,-0.40574221646413205
1772469521168020500,3.6980205078125,10.200774405515194,3.6442099045574663,0.4018899980153888
1772469521178027500,3.708027587890625,7.744229978692531,4.031152289614081,1.022529422200471
1772469521188034600,3.71803466796875,4.9009986028790475,4.094112311396002,0.2846675671048462
1772469521198041300,3.728041259765625,-0.23182839571237562,6.448751776492595,-2.8046210746511817
1772469521208048600,3.738048583984375,-11.028019009894132,9.4212256182909,-8.292047985360027
1772469521218055400,3.748055419921875,-27.743356511461734,13.01986853441596,-14.872411295056342
1772469521228062700,3.758062744140625,-46.46723163750171,17.379271366143225,-19.671700751042366
1772469521238069500,3.768069580078125,-61.04263099379539,18.464015398585794,-16.935883455765246
1772469521248077600,3.77807763671875,-66.25278322412967,18.009640814769266,-8.965966652855277
1772469521258084600,3.788084716796875,-64.90868682923316,16.45101085783243,-4.016851961582899
1772469521268091400,3.79809130859375,-61.31513042259216,12.8488467818439,-3.0722642955884334
1772469521278098700,3.8080986328125,-54.73817429099083,9.698259767907857,-3.215212630842626
1772469521288105500,3.81810546875,-44.433759478259084,7.4871782943964,-3.5525060188502073
1772469521298112500,3.828112548828125,-33.39787864894867,5.9777446223050354,-3.883360021460056
1772469521308119600,3.83811962890625,-24.74497899760008,4.815916765660047,-3.665721479141712
1772469521318126300,3.848126220703125,-18.576067075794935,4.41062623848617,-3.0534061581224203
1772469521328134700,3.858134765625,-14.23989782013893,4.555735843427479,-2.656474878492951
1772469521338141400,3.868141357421875,-11.0661637393713,4.9684991907000535,-2.2385025644004344
1772469521348148500,3.8781484375,-7.983416335952281,5.742061304730177,-1.3051089309848845
1772469521358155500,3.888155517578125,-4.4623903279930355,6.419210040187835,-0.2798055688253604
1772469521368162600,3.89816259765625,-0.21119301944077012,6.827054928019643,0.3511408577047288
1772469521378169600,3.908169677734375,4.397598999130725,7.04519031394422,0.5655278508812189
1772469521388176400,3.91817626953125,8.371464636424184,7.515195597612857,0.7258693656153976
1772469521398184400,3.928184326171875,11.74649811912775,8.136578606706857,0.8889398669220506
1772469521408191500,3.93819140625,14.558285724407433,8.65241449818015,1.073127098276466
1772469521418198500,3.948198486328125,16.72287432681322,8.890158839938044,0.9777722888462245
1772469521428205600,3.95820556640625,18.215857799363135,8.750230729287862,0.5316264215296134
1772469521438212600,3.968212646484375,18.96397333744764,8.377583411565423,-0.02459558513946831
1772469521448219600,3.9782197265625,19.226526541769502,7.947662301003932,-0.5713727775171399
1772469521458226400,3.988226318359375,19.31271546344757,7.485921572333574,-1.118536631124839
1772469521468233500,3.9982333984375,19.26312696441412,7.123882742387056,-1.4221049327284097
1772469521478241500,4.008241455078125,19.07498573473692,6.674466073238849,-1.7156487569890915
1772469521488248600,4.01824853515625,18.895332931941745,6.165011407235264,-2.315143613271415
1772469521498255600,4.028255615234375,19.072308624482154,5.832538863512873,-2.9403152009934184
1772469521508262700,4.0382626953125,20.121929905617236,5.478014062458277,-2.521741413876414
1772469521518269400,4.04826953125,21.72920377421379,5.0078123794347045,-2.010446672964096
1772469521528276500,4.0582763671875,23.073042979478835,5.0021939550310375,-2.0423587916620076
1772469521538283500,4.068283447265625,24.0910626691699,5.167760364806652,-1.959714556853473
1772469521548290600,4.07829052734375,24.620396340119836,5.3319028792589895,-1.5362972752280533
1772469521558298600,4.088298583984375,25.159725335383413,6.008652386265993,-1.9340986156903206
1772469521568305400,4.098305419921875,25.747873598873614,6.2375920747995375,-1.881625062739849
1772469521578312700,4.108312744140625,25.912308958792686,6.600044746243953,-1.278141429082304
1772469521588319500,4.118319580078125,25.65050394248962,7.239276715761423,-0.8226401793234049
1772469521598326500,4.128326416015625,23.586720816135404,7.698326305651665,0.058087739570438855
1772469521608333600,4.13833349609375,20.589806945085524,7.643549590325355,0.9422916640117764
1772469521618340600,4.148340576171875,17.959947101795674,7.410589560234547,0.6375467929095029
1772469521628347600,4.15834765625,15.642282737874984,6.385258670747279,0.5934357023738325
1772469521638355500,4.16835546875,14.105252033805847,5.196061745661496,-0.016923516141623258
1772469521648362800,4.17836279296875,13.531515742027759,4.654194756352902,-0.5204600441426038
1772469521658369500,4.18836962890625,13.316189568305015,4.335527158360183,-0.20254859827943145
1772469521668376300,4.198376220703125,12.686147451937197,4.0157466306895016,-0.14314948384948073
1772469521678383600,4.208383544921875,11.825934643936156,3.488629759006202,-1.2097648621443657
1772469521688390400,4.218390380859375,9.172050950980186,3.4998452727645635,-2.9563465906009077
1772469521698397700,4.228397705078125,1.9165280338168142,5.2435716848552225,-6.048367141538858
1772469521708404500,4.238404541015625,-12.10526713362336,8.681300400924682,-8.705151232111454
1772469521718412500,4.24841259765625,-30.20329116524458,13.941625652182102,-9.077500443670154
1772469521728419600,4.258419677734375,-47.8770844069004,19.019958844041824,-7.158667640042305
1772469521738426400,4.26842626953125,-62.396837279295916,20.296940435564515,-5.881253502321243
1772469521748433700,4.27843359375,-69.4296971039772,19.270668465834856,-7.833338587209582
1772469521758440400,4.2884404296875,-67.5613874498844,16.288731214642524,-7.924929660192132
1772469521768447700,4.29844775390625,-59.54704055361747,13.1260258928895,-5.73153581906259
1772469521778454500,4.30845458984375,-49.679698476767534,9.973013113111257,-3.6738036633104083
1772469521788461600,4.318461669921875,-40.322728180766106,6.687709001171588,-2.9952687341913578
1772469521798469600,4.3284697265625,-31.694652005028722,4.079062334041297,-4.748635665808618
1772469521808476400,4.338476318359375,-23.46778230202198,2.2140759791523217,-7.059105442050099
1772469521818483700,4.348483642578125,-17.262432454657553,1.621134051644802,-7.491519538471103
1772469521828490500,4.358490478515625,-13.7906015625,2.155456616923213,-5.87008738066256
1772469521838497500,4.36849755859375,-11.661651259708403,3.220001910945773,-3.973071272045374
1772469521848504600,4.378504638671875,-10.09342929856181,4.37215242318511,-1.9720298485472798
1772469521858511400,4.388511474609375,-8.124044703826307,5.36707706849277,0.06537921175286174
1772469521868519400,4.39851953125,-5.553313925853371,6.070274437442421,1.4777484940171242
1772469521878526500,4.4085263671875,-2.7317648050159216,6.573579348644614,1.9942644767090678
1772469521888533500,4.418533447265625,0.32939912762641904,6.892112798863649,1.6341194976851343
1772469521898540500,4.42854052734375,3.2951497986495495,7.1450067789584395,1.3031963753618299
1772469521908547600,4.438547607421875,5.662128520837426,7.5441440441995855,1.2216206465676427
1772469521918554600,4.4485546875,7.598502241852879,7.782523176729678,1.2105429338447748
1772469521928561400,4.4585615234375,9.840477450799941,7.929046447861194,0.7062057569853961
1772469521938568700,4.468568603515625,12.153173378658295,7.880418902814387,-0.11852814321424811
1772469521948576500,4.478576416015625,14.046149856495857,7.901848644334077,-1.0318429017297923
1772469521958583600,4.48858349609375,15.471362692111729,7.676354127818345,-1.726033226750791
1772469521968590600,4.498590576171875,16.542195103579758,7.310891168642043,-2.0490151808112858
1772469521978597600,4.50859765625,17.30945840972662,6.875485489189624,-2.5488284505054355
1772469521988604700,4.518604736328125,17.80807896250486,6.401852078151703,-2.8847061264961957
1772469521998611500,4.528611572265625,18.462044390773773,5.966797111833095,-2.971111321273446
1772469522008618500,4.538618408203125,19.442544789409638,5.6663551986217495,-2.951244591286778
1772469522018625500,4.54862548828125,20.50531547497511,5.362112139561772,-3.121167734967172
1772469522028633600,4.558633544921875,21.414555640995502,5.018591547602415,-3.089378804257512
1772469522038640400,4.568640380859375,21.947214072453974,5.071717573112249,-2.8485367887452244
1772469522048647700,4.578647705078125,22.084275103235242,5.118468802893162,-2.783663334557414
1772469522058654500,4.588654541015625,21.906000603055954,5.155059288665652,-2.6555250304222104
1772469522068661500,4.59866162109375,21.68028396822214,5.406915157884359,-2.3195912403300403
1772469522078668500,4.60866845703125,21.733597040736672,5.64727640414238,-1.7778148519143462
1772469522088675600,4.618675537109375,21.96115141239166,5.612401490116119,-1.4239105208456515
1772469522098683600,4.62868359375,22.260814742445945,5.449138681107759,-1.4486122697733341
1772469522108690400,4.6386904296875,22.574300846147537,5.651292069524526,-1.332761346411705
1772469522118697700,4.64869775390625,22.457564810514448,6.215998082628846,-0.9681713706776499
1772469522128705300,4.658705322265625,21.704448103141782,6.597945728138089,-0.8161393460620194
1772469522138712300,4.66871240234375,20.347892039644716,6.605006168043613,-0.7872410222273319
1772469522148719400,4.67871923828125,18.49629503542185,5.9482864726305005,-0.3661325290009379
1772469522158726400,4.688726318359375,16.441417684578894,5.181531116005778,0.05470240798108279
1772469522168733400,4.6987333984375,14.133470412552356,4.942373984840512,-0.02599704943522811
1772469522178741500,4.708741455078125,11.31241579723358,4.431639800420403,-0.3970458459198475
1772469522188748300,4.718748291015625,9.005400837621092,3.275711523208022,-0.9581636252738535
1772469522198755300,4.72875537109375,7.834906274917722,2.534003806339204,-1.687210305751115
1772469522208762400,4.738762451171875,6.362359441196918,3.014920067861676,-4.037609502929449
1772469522218769400,4.748769287109375,-0.41054537896215915,4.175406446769833,-7.789676555615663
1772469522228776400,4.7587763671875,-14.607036019051074,7.11315092049241,-10.075604888057708
1772469522238783200,4.768783203125,-32.37038736655712,11.564320181769132,-8.997035744857788
1772469522248791600,4.77879150390625,-49.77764564077854,14.767724593657254,-5.822015715932846
1772469522258798300,4.78879833984375,-62.30800398058891,16.020070925617215,-3.789815768583119
1772469522268805400,4.798805419921875,-66.13104368112087,14.995920770347118,-3.7014559326067564
1772469522278812400,4.8088125,-62.52178000226021,12.249532981216907,-3.576263911056518
1772469522288819200,4.818819091796875,-54.199287194275854,9.885642288172244,-1.8522838174432514
1772469522298826500,4.828826416015625,-44.68912540142536,7.181807108089328,-0.9180976454105227
1772469522308833300,4.838833251953125,-35.989569212841985,4.374134829173982,-1.4230936515048145
1772469522318840300,4.84884033203125,-28.23986343308687,2.062711989991367,-3.259053233873844
1772469522328848400,4.858848388671875,-22.161343145346642,0.9814916746955364,-4.4889851971909405
1772469522338855200,4.868855224609375,-18.335577234721182,1.0353267983227967,-4.090921406400203
1772469522348862500,4.878862548828125,-15.92771179087162,1.7881743333652615,-2.9165441570445894
1772469522358869200,4.888869140625,-13.681705134451388,3.121669254748523,-1.1176318643048404
1772469522368876500,4.89887646484375,-10.766486380791664,4.142218170656264,0.6168270993553102
1772469522378883300,4.90888330078125,-7.410678407561779,4.774958147805929,1.5044316260203718
1772469522388890400,4.918890380859375,-3.6340076594948765,5.240235233908892,1.6508184112906454
1772469522398898400,4.9288984375,0.028384967485070228,5.79399665915072,1.6882120301395653
1772469522408905200,4.9389052734375,3.4562896241545675,6.014136370635033,1.5091745827637613
1772469522418912500,4.94891259765625,6.737934629064798,6.228868670117855,1.1118655558630823
1772469522428919300,4.958919189453125,9.757901458922028,6.405321800088882,0.18001345280110834
1772469522438926300,4.96892626953125,12.043072835516929,6.354186656135321,-0.716177627358213
1772469522448933400,4.978933349609375,13.38593238209486,6.7088955815851685,-0.980026570579037
1772469522458940200,4.988940185546875,14.288620057731865,7.168554827806354,-1.1455360625356434
1772469522468947500,4.998947509765625,15.008698418855666,7.412228559613228,-1.6686814002394674
1772469522478955300,5.008955322265625,15.852542275857925,7.361911161783337,-2.0527261641584333
1772469522488962300,5.01896240234375,16.545109529721735,7.264681206130981,-1.9831173520117997
1772469522498969300,5.02896923828125,17.111547481185198,7.0481029865205285,-2.049358002899587
1772469522508976400,5.038976318359375,17.830300146663188,6.584976940971613,-2.2564793889872727
1772469522518983400,5.0489833984375,18.526122018408774,6.384203024214505,-2.0529199331648647
1772469522528990200,5.058990234375,18.990507124108074,6.337735287550092,-1.3828807374514638
1772469522538997500,5.06899755859375,19.07973672865629,6.33016514455676,-0.7901761258311569
1772469522549005300,5.07900537109375,19.0123203119874,6.460621077984571,-0.716175873792544
1772469522559012400,5.089012451171875,19.20383657105565,6.710958943855762,-1.1355516980074345
1772469522569019400,5.099019287109375,19.0807678252697,6.341666197258234,-1.0436761820603162
1772469522579026400,5.1090263671875,18.594024757289887,6.040090311580896,-0.29981384444087744
1772469522589033500,5.119033447265625,18.650057025635242,6.193206989628076,0.23537505534328518
1772469522599040300,5.129040283203125,18.776484434199332,6.241368086206912,0.5788803766682744
1772469522609047300,5.13904736328125,19.29455086120367,6.356656845641136,0.8109308176334947
1772469522619054300,5.149054443359375,19.805249974310396,6.408370666265487,0.9055371467839926
1772469522629062400,5.1590625,19.823442633605,6.416303797352314,0.905332125731185
1772469522639069400,5.1690693359375,19.578266096019743,6.461715887483954,0.6718732062075287
1772469522649076500,5.179076416015625,19.22326724771261,6.434615699112415,0.43539537725411354
1772469522659083300,5.189083251953125,18.545355126667022,6.238590438187122,-0.012389306778088211
1772469522669090300,5.19909033203125,17.531013248705865,5.526276865845919,-0.17973061727173625
1772469522679097300,5.209097412109375,16.2137277038455,4.268013126535713,0.2547675554143265
1772469522689104400,5.2191044921875,14.90432619023323,3.178026517264545,0.49014911356363444
1772469522699112400,5.229112548828125,13.679865059542655,2.476807754911482,0.2011437181838788
1772469522709119200,5.239119140625,12.523278610682487,1.4502984692946075,-0.03688404362527653
1772469522719126500,5.24912646484375,11.388616408860683,0.6037585050761699,-0.22926267341021447
1772469522729133300,5.25913330078125,9.711430215126276,1.4824648550145327,-0.5389983020044863
1772469522739140400,5.269140380859375,5.456369801405072,4.299860217173397,-1.864545625384152
1772469522749147400,5.2791474609375,-3.6334319054335356,8.849537491214274,-4.599195338186622
1772469522759154400,5.289154541015625,-19.07873135100603,14.108466904199123,-7.975722274318337
1772469522769161500,5.299161376953125,-36.40608080673218,17.70163285021782,-9.454861930432916
1772469522779169300,5.309169189453125,-47.657201300525664,18.956638756775856,-7.6110905052691695
1772469522789176600,5.319176513671875,-51.80455245015621,18.77716131054759,-5.3400324097007505
1772469522799183400,5.329183349609375,-54.48305152893066,18.896925169569254,-5.370610503315925
1772469522809190400,5.3391904296875,-55.455293802309036,17.963666999101637,-5.991283902835845
1772469522819197400,5.349197509765625,-52.21781877851486,15.766920340412854,-6.580567307835817
1772469522829204200,5.359204345703125,-44.52774124577045,12.969296869564056,-4.8889577442124486
1772469522839211500,5.36921142578125,-34.78465449414253,9.784745042183994,-3.493292197859287
1772469522849219300,5.37921923828125,-26.3158348143816,6.688575847133993,-3.621720424851775
1772469522859226400,5.389226318359375,-20.722032810795305,5.051857857388257,-4.845020110547543
1772469522869233400,5.3992333984375,-18.758553640711305,5.118425548273325,-5.776020857477188
1772469522879240200,5.409240234375,-19.172624271190166,5.720684754702448,-5.128349560916424
1772469522889247500,5.41924755859375,-19.151812953829765,6.804187847173213,-3.3517379473119973
1772469522899254300,5.429254150390625,-17.197364646941423,7.596027960693836,-1.771727933216095
1772469522909261600,5.439261474609375,-13.185458909589052,7.787056728506088,-0.8076990691706538
1772469522919268400,5.449268310546875,-8.015974789729714,7.739168603649735,-0.05284008470792323
1772469522929276400,5.4592763671875,-2.7594009999603033,7.318904379227757,0.21460691953748462
1772469522939283500,5.469283447265625,1.7092887204378842,6.882499751865863,0.47875623394437133
1772469522949290200,5.479290283203125,5.517161831498146,6.631338879173994,1.0079476468794046
1772469522959297500,5.489297607421875,8.959352787673472,6.66435735167861,1.6347972508162258
1772469522969304300,5.49930419921875,12.151001295316219,6.972475790867209,1.724196805103868
1772469522979311400,5.509311279296875,14.750157372784614,7.276641693037748,1.0390307674072683
1772469522989318400,5.519318359375,16.713281153559684,7.213817280334234,0.3049849269358441
1772469522999326500,5.529326416015625,18.1065545440793,7.084110119447112,-0.38645427274610844
1772469523009333200,5.539333251953125,18.975212524342535,7.00222035626769,-1.2764853324383496
1772469523019340300,5.54934033203125,19.318386494821308,6.561131955003738,-1.4823434205919503
1772469523029347300,5.559347412109375,19.57999043559432,6.471852081573009,-1.1640909062061457
1772469523039354400,5.569354248046875,20.186685578644273,6.405778896206617,-0.7655301987439393
1772469523049361400,5.579361328125,20.64220114918947,6.201656838065386,-0.3943404594186693
1772469523059368400,5.589368408203125,21.238174991738795,6.20427783421874,-0.01626349959662184
1772469523069375200,5.599375244140625,21.220290960001943,6.366220208278298,0.45173407924510534
1772469523079383300,5.60938330078125,20.594557939004897,6.389112423565983,0.8583160344690084
1772469523089390300,5.619390380859375,19.817471157979963,6.493414509561657,1.1388805501691996
1772469523099397400,5.6293974609375,19.21838765897751,6.71402125403583,1.1779674558673052
1772469523109404400,5.639404296875,18.832545928639174,6.8235624097287655,0.6775828890912234
1772469523119411500,5.649411376953125,18.646895931255816,6.628067894679307,-1.0267139413435011
1772469523129418200,5.659418212890625,17.251969512832165,6.677158381062745,1.3563058881282806
1772469523139425300,5.66942529296875,15.924285323554276,8.458675302365421,3.470864092952013
1772469523149433000,5.67943310546875,15.710150405442715,8.369433422857522,3.3321067796468733
1772469523159440400,5.6894404296875,15.759240891826153,7.881580932331085,4.52818849581033
1772469523169447200,5.699447265625,15.903893692910671,8.996126813319325,5.277806547412276
1772469523179454200,5.7094541015625,15.734295835661888,9.630819385841487,5.441861383581161
1772469523189461200,5.719461181640625,15.106493607175349,9.441113391065597,5.15442917406857
1772469523199468000,5.729468017578125,14.49997498973608,9.216256003409624,4.8838978304743765
1772469523209475300,5.739475341796875,13.943007461929321,9.034683630728722,4.889825466957688
1772469523219483100,5.749483154296875,13.522525795364379,7.623105352711677,5.186667894372344
1772469523229490200,5.759490234375,13.538625866293906,5.722894831967354,4.741764318734407
1772469523239497200,5.769497314453125,13.131104219067096,4.898536888940632,3.5953134794414043
1772469523249504300,5.779504150390625,12.116236271405219,4.0002223138213155,2.2852862351462244
1772469523259511300,5.78951123046875,10.791624329179525,2.71247353682965,0.6803628751985729
1772469523269518000,5.79951806640625,8.442450728273391,2.9053718979060648,-1.583831472080201
1772469523279525400,5.809525390625,3.2315234219133853,4.983942843547463,-4.784279226119816
1772469523289533200,5.819533203125,-6.27983021107018,8.471102822262049,-8.776112189519404
1772469523299540200,5.829540283203125,-20.510410167765617,11.905860998088121,-12.074466337168216
1772469523309547300,5.83954736328125,-35.78855914924144,13.399723591560125,-13.356308812725544
1772469523319554300,5.84955419921875,-47.64357492623329,14.563374571979045,-12.398291464054584
1772469523329561300,5.859561279296875,-54.27072044537067,15.613449442100524,-10.6630224991858
1772469523339568000,5.869568115234375,-57.547451959276195,15.215794524371622,-9.51402957419455
1772469523349575200,5.8795751953125,-57.03972689354419,14.038667976307869,-8.66750100815296
1772469523359582200,5.889582275390625,-52.069555970239634,13.211921384578943,-7.161174069905281
1772469523369590300,5.89959033203125,-44.12310713667869,11.106936479264498,-5.750364438173174
1772469523379597300,5.909597412109375,-35.444532945847506,8.599241710919141,-4.644390278436243
1772469523389604400,5.919604248046875,-27.201586552786825,6.0127878786355256,-4.767842470581829
1772469523399611100,5.929611083984375,-20.435006843996046,4.9056326924204825,-5.9346811411261555
1772469523409618200,5.9396181640625,-16.83602139804363,4.986864283952117,-6.3857309644341465
1772469523419625200,5.949625244140625,-15.83311861346364,5.509231623020768,-5.6530631708502765
1772469523429632300,5.95963232421875,-15.834680455952881,5.990901040998101,-3.826762812708318
1772469523439640300,5.969640380859375,-14.352542202544212,6.576344137182831,-3.0568355480492113
1772469523449647000,5.979647216796875,-10.989011526107788,6.956431834039091,-3.199708479979634
1772469523459654400,5.989654296875,-7.162745849266648,7.1213389031231396,-2.8236715198189017
1772469523469661200,5.9996611328125,-3.262042478817701,7.522174204453825,-1.8120456228181718
1772469523479668200,6.009668212890625,1.0041758732557295,7.66649908875823,-1.0857004563845694
1772469523489675300,6.01967529296875,5.156856693476438,7.605133642691373,-0.7420802034430205
1772469523499682300,6.029682373046875,8.859867746570705,7.58613551223278,-0.28403233794122934
1772469523509690400,6.0396904296875,11.81438215330839,7.582351317518949,0.4225767026154324
1772469523519697200,6.049697265625,14.13536426347494,7.66582805762887,0.9520432426974177
1772469523529704400,6.059704345703125,16.23679761378765,8.034404180389643,0.7320783763233571
1772469523539711200,6.069711181640625,18.007569269192217,8.44812292869091,0.10407837850870565
1772469523549718000,6.079718017578125,18.77050594431162,8.791219742280244,-0.1974107604669407
1772469523559725300,6.089725341796875,18.71713909578323,8.950049537277222,0.01189402494127862
1772469523569732000,6.099732177734375,18.44128918751478,8.666658127588033,0.5076432326674462
1772469523579740200,6.109740234375,18.76742668299675,8.112677506637572,0.8836281703799963
1772469523589747200,6.119747314453125,19.87335378872156,7.268598087313771,0.7331855338476598
1772469523599754200,6.129754150390625,21.016133830547332,6.626344724148511,0.506744530262053
1772469523609761300,6.13976123046875,21.472416293811797,6.267484524238109,0.7095876545086502
1772469523619768000,6.14976806640625,21.28988179810047,6.204397076684236,1.3426250071696937
1772469523629775400,6.159775390625,20.81821939487457,6.4154959881007665,1.8950000926196573
1772469523639782100,6.1697822265625,20.063017113399503,6.664470748925209,2.18538618350178
1772469523649789400,6.17978955078125,18.94021836785078,6.897009923255443,2.3517659554868935
1772469523659797200,6.18979736328125,17.85191108996868,7.055431137451529,2.4338642468504608
1772469523669804300,6.19980419921875,16.74546259071827,7.125917463085055,2.3950739129461347
1772469523679811300,6.209811279296875,15.675067401623725,7.164637362101674,2.285203671429306
1772469523689818000,6.219818115234375,14.364063128989933,7.225069326710701,2.260924239566922
1772469523699825400,6.229825439453125,12.97913671105504,7.064484797000884,2.4031395843714476
1772469523709832200,6.239832275390625,11.886659454011916,6.792723034828901,2.504028062531352
1772469523719839200,6.249839111328125,11.257815607517957,6.605353374046087,2.332542491839826
1772469523729847300,6.259847412109375,10.975813021838665,6.339028834491968,2.0783555493250487
1772469523739854300,6.269854248046875,10.684018525463342,6.0738347602725025,1.9995565917678175
1772469523749861000,6.279861083984375,10.103393058693408,5.814004258912801,2.087475990500301
1772469523759868200,6.2898681640625,9.346372914141416,5.0498430104345085,2.3838591298401353
1772469523769875200,6.299875244140625,8.941335484945773,3.9203982510000466,2.6149893141552805
1772469523779882200,6.30988232421875,9.2045310788244,2.7809786255180833,2.4666189538523553
1772469523789889300,6.31988916015625,9.921559989249706,1.707443823223561,2.170960767786205
1772469523799897000,6.32989697265625,10.218773003542422,0.9465442068897187,2.1478885197564956
1772469523809904400,6.339904296875,9.601841713160276,0.7500564430192113,2.264725677676499
1772469523819911200,6.3499111328125,7.6681246441334485,1.6364138922326266,1.3091197740614413
1772469523829918200,6.359918212890625,3.347261094158888,3.1504870606929063,-0.7538871072232722
1772469523839925200,6.36992529296875,-3.932538770648837,5.075938405677676,-3.109191173708439
1772469523849932300,6.379932373046875,-13.680363072192668,7.353490539440513,-5.093330269983411
1772469523859939300,6.389939208984375,-24.29019291037321,9.181950413703918,-6.198242645707726
1772469523869947100,6.399947021484375,-34.35955276656151,10.932489428418874,-6.681880733409524
1772469523879954400,6.409954345703125,-42.52566960244179,11.686456030619144,-7.013833052650094
1772469523889961200,6.419961181640625,-46.77613508958816,11.35036997257471,-7.237246671238541
1772469523899968300,6.42996826171875,-46.995307417345046,10.879621761584282,-7.2950862812668085
1772469523909975300,6.439975341796875,-44.5637618227005,9.287334449717402,-7.129889873847365
1772469523919982000,6.449982177734375,-39.825688175177575,7.201593758577108,-6.933797392904758
1772469523929989400,6.4599892578125,-34.15270449832678,4.76928594738841,-6.843014129173755
1772469523939997200,6.4699970703125,-28.388568139910696,2.2612940957926213,-6.757437201914191
1772469523950004200,6.480004150390625,-23.311130435585973,0.804785519811511,-6.737160137560963
1772469523960011300,6.49001123046875,-19.871242495656013,1.0603761916443706,-6.982652901488542
1772469523970018000,6.50001806640625,-19.311381584495305,1.7715917396157979,-5.9274506053507325
1772469523980025300,6.510025390625,-19.406214415878058,3.213008398796618,-4.965644385790824
1772469523990032100,6.5200322265625,-18.837651142823695,4.6486312770068645,-3.4354993495821953
1772469524000039400,6.530039306640625,-16.734777530574796,5.159831909894943,-1.9354805715680121
1772469524010046200,6.540046142578125,-12.835689194107054,5.514534405604005,-0.9482122862324118
1772469524020054300,6.55005419921875,-7.913725544610619,5.786089831548929,-0.344820495576784
1772469524030061300,6.560061279296875,-2.9298130962014195,5.701750921651721,-0.18391774849696083
1772469524040068000,6.570068115234375,1.5410697503268718,5.562570414498448,-0.10175662103025242
1772469524050075400,6.580075439453125,5.295968811568618,5.458056147056817,0.186260274768807
1772469524060082200,6.590082275390625,8.507191203731297,5.707012203180789,0.9497317508846521
1772469524070089200,6.600089111328125,11.23509290357828,6.067433076536655,1.4451060152180493
1772469524080096300,6.61009619140625,13.622493067026138,6.3839785678088665,1.5137085729315876
1772469524090104300,6.620104248046875,15.935388901370763,6.730405402603745,1.0002831766661255
1772469524100111400,6.630111328125,18.002037354028225,7.211864392700791,0.0640504108345136
1772469524110118100,6.6401181640625,19.270573773288724,7.7241960754454135,-0.6854281226988881
1772469524120125200,6.650125244140625,19.445850845217702,8.10001676250696,-1.0198214784160256
1772469524130131700,6.660131591796875,18.718725488191843,8.369367371883987,-0.7304372580528259
1772469524140138800,6.670138671875,17.78715658598542,8.244026004990936,0.11739438994396477
1772469524150145500,6.6801455078125,17.909640809881687,7.843122314599156,0.8875071307051926
1772469524160153600,6.690153564453125,19.116704231047628,7.665203203728795,1.0480382497273384
1772469524170160600,6.70016064453125,20.61627877242565,7.256070614174008,0.7863034491162747
1772469524180167700,6.710167724609375,21.6778546952486,6.955374433940649,0.4549615533916279
1772469524190174500,6.720174560546875,21.719753224301336,6.997330830660462,0.41007209889460355
1772469524200181800,6.730181640625,20.821277613401413,6.848696266463398,0.4759478985253721
1772469524210188500,6.7401884765625,19.55528152627349,6.7168889184266325,0.6369781992413103
1772469524220195600,6.750195556640625,18.02367284725308,7.037761625248193,1.0339239457875489
1772469524230203600,6.76020361328125,16.498544177901742,7.319376672914624,1.704030507648736
1772469524240210400,6.77021044921875,15.273877295505999,7.148879236477613,2.100157046766579
1772469524250217700,6.7802177734375,14.470533791196345,6.950594798448681,2.1918360902935263
1772469524260224500,6.790224609375,13.800339697182178,6.720149966049194,2.021216488781571
1772469524270231800,6.800231689453125,12.954558734637498,6.608402240222692,1.8960050318785011
1772469524280238600,6.810238525390625,11.980346622490883,6.547496812883019,1.839913434561342
1772469524290245600,6.82024560546875,11.148393109768628,6.204544960722327,1.6652600474886594
1772469524300253700,6.830253662109375,10.446849937766789,5.759918448460102,1.4947132189519703
1772469524310260500,6.840260498046875,9.641773326054215,5.209360203173756,1.5198859463922678
1772469524320267800,6.850267822265625,8.716210970786213,4.165148964388668,1.7679685806825756
1772469524330274600,6.860274658203125,7.704070402261614,3.158632080964744,2.3341776918262243
1772469524340281600,6.870281494140625,6.910579598924517,2.1765181096524,2.771428706884384
1772469524350288600,6.88028857421875,6.2273728786021465,1.9620954606406389,2.2797734630741178
1772469524360295400,6.89029541015625,4.452596079209447,2.583808870732784,1.0684610061615705
1772469524370303700,6.9003037109375,0.4487380392342806,3.3243829073965547,-0.12933387059532106
1772469524380310500,6.910310546875,-5.857339542770386,3.9439550676763053,-0.31622210453674193
1772469524390317600,6.920317626953125,-12.179734053325653,4.0254093620479106,0.5106852307118475
1772469524400324600,6.93032470703125,-16.922259419560433,4.221594781970977,0.23401794164590536
1772469524410331600,6.94033154296875,-20.659131241202353,4.50949168638587,-1.6698681258060037
1772469524420338700,6.950338623046875,-24.65986793428659,4.847335986274481,-4.6626741231456394
1772469524430345500,6.960345458984375,-29.075470207619666,4.980142866742611,-7.744898671734332
1772469524440353500,6.970353515625,-32.30805395224094,4.75224070456326,-9.075051296952367
1772469524450360600,6.980360595703125,-33.12274419547319,3.548620117327571,-9.484273902878165
1772469524460367600,6.99036767578125,-32.0074530490756,3.1981928147196768,-9.62399041660428
1772469524470374700,7.000374755859375,-29.92121025363207,2.506482762207091,-7.353957572430372
1772469524480381700,7.010381591796875,-28.10034741036892,1.2854537979222833,-7.434674784699082
1772469524490388700,7.020388671875,-26.282664366185664,0.5510958592943846,-7.261315529090166
1772469524500395500,7.0303955078125,-24.65270637209415,0.2790154596272856,-5.991960194662213
1772469524510403600,7.040403564453125,-24.02970423736572,0.5882490935161709,-4.312912883231044
1772469524520410600,7.05041064453125,-23.723964217746257,1.1305502364583313,-3.1176044895276425
1772469524530417700,7.060417724609375,-22.70385661586523,1.372627492853999,-2.9361306087851524
1772469524540424700,7.0704248046875,-20.15109287173748,1.9788065030753612,-3.0030647948950526
1772469524550431700,7.080431640625,-16.751251695513723,2.510262573006749,-2.8029145629942414
1772469524560438500,7.0904384765625,-12.937307155585287,3.0463986174479123,-2.3779817622393367
1772469524570445600,7.100445556640625,-9.122921886152028,3.4638930848956107,-1.5548010462984443
1772469524580453600,7.11045361328125,-5.410713381123543,3.3112463624477386,-0.6733342186708003
1772469524590460400,7.12046044921875,-1.7359546090453861,3.0190108443066475,-0.5502206838950514
1772469524600467700,7.1304677734375,1.2277291925758123,2.5678122601777313,-0.3015189678583294
1772469524610474500,7.140474609375,2.6662469154447317,2.687835646918416,-1.3586385688595473
1772469524620481800,7.150481689453125,4.333960931956768,2.9693527871683236,-2.12378459059149
1772469524630488600,7.160488525390625,5.338083029198646,3.507484973862767,-2.7771400702685116
1772469524640495600,7.17049560546875,6.437922923964262,3.9100145118907093,-2.8314585204333067
1772469524650503700,7.180503662109375,7.861982497891783,5.2464814348220825,-0.2301842817671597
1772469524660510500,7.190510498046875,8.066997120958566,6.366182214355469,-0.7488089271761477
1772469524670517800,7.200517822265625,11.397233430558442,6.962075977405905,0.9573002133775502
1772469524680524500,7.210524658203125,14.138714742946624,8.278590537893772,2.0624444250963627
1772469524690531800,7.22053173828125,16.326510033416746,9.028295975518226,3.303656053449213
1772469524700538600,7.23053857421875,17.95176613342762,9.05801540647745,4.770381341409683
1772469524710545700,7.240545654296875,19.44742905431986,9.13549027582407,5.476224256432056
1772469524720553700,7.2505537109375,20.124859529328344,9.985656321585179,5.610339296889305
1772469524730560500,7.260560546875,19.92326728192568,9.382899687027932,5.273713140618801
1772469524740567800,7.27056787109375,19.434990428507326,8.442170157766341,4.077634931586682
1772469524750574600,7.28057470703125,19.236655137073992,7.717006456202268,2.6683076473668215
1772469524760581600,7.29058154296875,19.470321269607542,7.371379247352481,1.5775854172974824
1772469524770588700,7.300588623046875,19.602379962056872,6.860944338139891,0.9461341647841036
1772469524780595500,7.310595458984375,19.552582204186916,6.211960205414891,0.7500342311874032
1772469524790603500,7.320603515625,19.734852496004102,6.083959848445653,0.9911976606737821
1772469524800610600,7.330610595703125,19.9389652017951,5.979509293889999,1.1151043185885996
1772469524810617600,7.34061767578125,20.1496689764142,5.648180074983835,0.882140927496925
1772469524820624600,7.350624755859375,19.989110165667533,5.682705444920063,0.6820823924675583
1772469524830631700,7.360631591796875,19.024378998571635,5.828529627871513,0.6804920545361935
1772469524840638700,7.370638671875,17.521383835095165,5.685932005751132,0.6337954775519669
1772469524850645500,7.3806455078125,16.259142716586588,5.524105367025733,0.666088704521954
1772469524860653600,7.390653564453125,15.53479150044918,5.381769026190042,0.8545636961981654
1772469524870660600,7.40066064453125,14.612128373754024,5.38367456755042,1.084798904434964
1772469524880667600,7.410667724609375,12.814646406078339,5.002548759818077,1.1336236525543033
1772469524890674700,7.4206748046875,10.755139641869068,3.661297817480564,0.834362619690597
1772469524900681700,7.430681640625,9.037302288794518,2.344987401262671,0.6471061369586736
1772469524910688500,7.4406884765625,7.112261862698197,2.6370605684489012,0.4552576502613723
1772469524920695600,7.450695556640625,4.086504759001731,3.0908082525387406,0.4667996925603598
1772469524930703600,7.46070361328125,-0.18986849186122418,4.145720041297376,0.7494616919964552
1772469524940710700,7.470710693359375,-7.181053074851632,7.376052499860525,0.6523777206860483
1772469524950717700,7.4807177734375,-19.45186206833124,10.735693767642974,-0.1674490451844409
1772469524960724500,7.490724365234375,-35.79122924523353,11.831479418581724,-1.764529400014132
1772469524970731800,7.500731689453125,-49.205969204139706,10.923797587919234,-3.983490959250927
1772469524980738600,7.510738525390625,-53.98006342859268,9.78385832247734,-5.208323845863342
1772469524990745600,7.52074560546875,-50.05878196501732,8.58818314128816,-5.0660944725334645
1772469525000753700,7.530753662109375,-42.56127867596149,6.420355703091621,-3.7083217267230153
1772469525010760400,7.540760498046875,-35.54623040230274,3.9706326467216013,-2.3343916268378493
1772469525020767700,7.550767822265625,-29.04599393776655,2.1413724158607423,-1.2570546557813882
1772469525030774500,7.5607744140625,-23.447758920168877,1.2119013627164066,-0.6759332221880555
1772469525040781800,7.57078173828125,-19.94719293191433,0.6220515560053289,-0.5101012202788144
1772469525050788600,7.58078857421875,-17.99665040029287,0.1859767451196909,-0.33401422020643945
1772469525060795600,7.590795654296875,-16.36123063366413,0.2994647387422621,0.01971921127475798
1772469525070803700,7.6008037109375,-15.15958923754692,0.9847525031223893,0.6436879260130226
1772469525080810500,7.610810546875,-14.813699578368663,1.583898107575625,1.0673944729086011
1772469525090817800,7.62081787109375,-14.321057515478133,1.9883536452300845,0.8356017330314963
1772469525100824600,7.630824462890625,-12.915394598984717,2.5285923026844856,0.4709507843578234
1772469525110831600,7.64083154296875,-10.729227786499262,2.8906428230687973,0.3730445003464818
1772469525120838700,7.650838623046875,-7.912991385117173,3.029171880576014,0.12381682420689612
1772469525130845700,7.660845703125,-4.449257290175557,3.249202286466956,-0.06728902742955833
1772469525140853800,7.670853759765625,-0.4815905075222254,3.392981519587338,-0.16855691509479656
1772469525150860800,7.68086083984375,3.27133228521049,3.7425422684937715,-0.5782435400694609
1772469525160867800,7.690867919921875,6.342579804971813,4.053192856508494,-0.8921915621943771
1772469525170875000,7.700875,9.005362843698263,4.440629747083783,-0.7856338062264024
1772469525180882000,7.7108818359375,11.122177303016185,4.805844576717913,-0.6008308541264384
1772469525190889000,7.720888916015625,12.665373543977736,4.944947050198913,-0.4218771395113319
1772469525200897000,7.73089697265625,13.960393481016158,5.165673621660471,-0.18172942640613762
1772469525210903800,7.74090380859375,15.029042118704318,5.5643947073161595,0.04416985325189307
1772469525220910800,7.750910888671875,15.821359202086924,6.02029372422099,0.06535703645367175
1772469525230918000,7.76091796875,16.65067652108669,6.340314782649278,-0.04869506645821966
1772469525240925000,7.770925048828125,17.680751390230654,6.47255935305953,-0.0959920570210088
1772469525250932000,7.780931884765625,18.73133362535238,6.660802289545535,-0.0811598414696753
1772469525260939000,7.79093896484375,19.86584151339531,6.72996642666459,0.44169480619188395
1772469525270947000,7.800947021484375,20.810190402197836,6.764929018974303,0.8084878083955496
1772469525280953900,7.810953857421875,21.048967594134805,6.842757524064183,0.6250898277226835
1772469525290961000,7.8209609375,20.558191325116155,6.753869864821434,0.21161573836486786
1772469525300968000,7.830968017578125,19.740412468218803,6.7733589936673635,-0.19980762900821863
1772469525310974700,7.840974609375,18.761597830712795,6.935556803792715,-0.30978834516219794
1772469525320982000,7.85098193359375,17.98096767799258,6.915263372826576,-0.18301610521581022
1772469525330988800,7.86098876953125,17.489286569088698,6.848150323018431,0.041697855381481345
1772469525340996900,7.870996826171875,16.97538076889515,6.732853380277753,0.2737429443181492
1772469525351004000,7.88100390625,16.216961278939245,6.724425743672251,0.4223047538062557
1772469525361010700,7.8910107421875,15.13991423074007,6.72487582552731,0.5625950488323346
1772469525371018000,7.90101806640625,13.994237298429011,6.485581916239857,0.5832507372396066
1772469525381024800,7.911024658203125,13.164409107297658,6.133523213037848,0.5640583263179287
1772469525391032000,7.921031982421875,12.375877387672663,5.916407817810773,0.7577667982008308
1772469525401038800,7.931038818359375,11.048154619950056,5.418911885148287,0.7562181074541061
1772469525411047000,7.941046875,9.250929841905831,4.475851867112517,0.7096206069301814
1772469525421054000,7.951053955078125,7.691096938920021,3.648514908275008,0.8725060339935123
1772469525431060700,7.961060791015625,7.080282670113444,2.7654785663083192,1.2155400845449418
1772469525441068000,7.971068115234375,6.603644816562533,2.106138897655159,1.1159783980093896
1772469525451074800,7.98107470703125,5.237620667496324,1.8186650409579277,0.7101340363450348
1772469525461081900,7.991081787109375,1.582584248498082,2.7959891476452348,0.09423139489088207
1772469525471089000,8.0010888671875,-6.099119423654675,4.853735916444659,-0.9283809928853064
1772469525481097000,8.011096923828125,-17.986632864147424,6.872534822690486,-1.8260557357311247
1772469525491104000,8.02110400390625,-31.87890031892061,7.199606968674063,-2.8262714731842276
1772469525501110800,8.03111083984375,-43.293291805028915,6.072457626700401,-3.7636388325363397
1772469525511117800,8.041117919921875,-47.57275893025398,3.9098178202748297,-4.61166640496403
1772469525521124900,8.051124755859375,-45.74956501369476,3.024357466031611,-4.2442341915413735
1772469525531132000,8.0611318359375,-42.213693903303145,1.424161280736327,-3.2107331473410126
1772469525541139000,8.071138916015625,-38.31057938005924,0.4485738616485148,-1.6400275526851416
1772469525551147000,8.08114697265625,-34.028923804879184,-0.13637662871368228,-0.3966725921606645
1772469525561153800,8.09115380859375,-28.935072725892066,-1.1458764004059134,-0.11514341441309078
1772469525571160800,8.101160888671876,-23.111857571041583,-1.6149397270493209,-0.3950950771782547
1772469525581167900,8.11116796875,-18.179229319667815,-1.6463503259658812,-0.5763424191558734
1772469525591175000,8.1211748046875,-14.049231455898283,-1.3488070568054913,-0.4363653547974303
1772469525601182000,8.131181884765626,-10.84439379633665,-0.45831733009293674,-0.14575122731309384
1772469525611189000,8.14118896484375,-8.83630566919744,0.3293389218717813,-0.19740637655276805
1772469525621197000,8.151197021484375,-7.898806207898259,1.182729921028763,-0.5525946464847773
1772469525631203800,8.161203857421874,-7.305430565148591,1.997895234426856,-0.45361887007839974
1772469525641211000,8.1712109375,-6.367999492910504,2.702674611870944,-0.26230715713892133
1772469525651218000,8.181218017578125,-4.721214282658696,3.2221143730551,-0.0692452029986307
1772469525661225000,8.191224853515624,-2.45695826832056,3.957928940232098,0.20346083601983264
1772469525671232000,8.20123193359375,-0.3001742021858692,4.488223857429623,0.37280630767643447
1772469525681238800,8.21123876953125,1.7150696419268845,4.80336912651509,0.46864283620901404
1772469525691247000,8.2212470703125,3.6803269275993107,5.019109433996677,0.257478257411439
1772469525701254000,8.23125390625,5.463379387906193,4.913558224722743,0.2550651318551041
1772469525711260700,8.2412607421875,7.424037070828676,4.8644513717263935,0.25221447339802977
1772469525721268000,8.25126806640625,9.61166168090701,4.903675713133811,0.26746179995574054
1772469525731274800,8.261274658203124,11.26306812121868,5.448551821130514,0.9462050380632281
1772469525741282000,8.271281982421876,12.260354819482565,5.604352623695135,1.2036321315430103
1772469525751288800,8.281288818359375,12.733687786269186,5.858175993594527,1.282715751260519
1772469525761297000,8.291296875,13.150187689721584,6.072396836423874,1.2111600428298115
1772469525771304000,8.301303955078126,13.480185367763042,5.993727204334736,1.1858100591264664
1772469525781310700,8.311310791015625,13.79300511651039,6.07919248791337,1.31957117157951
1772469525791318000,8.321318115234375,14.083952056145668,6.1170280053108925,1.1899039043113588
1772469525801324800,8.33132470703125,14.48910288258791,5.899831946063041,1.2265810454539954
1772469525811332000,8.34133203125,15.084439596277475,5.60859625261426,1.3046885136157274
1772469525821339000,8.3513388671875,15.552403144985437,5.393198767220974,1.1892865761306135
1772469525831347000,8.361346923828124,16.117167025756835,5.139557183629274,1.0316090199086814
1772469525841354000,8.37135400390625,16.97263117792606,5.075666602998972,0.7115643614090978
1772469525851360800,8.38136083984375,17.915888179838657,5.026904617917538,0.47217009701970963
1772469525861368000,8.3913681640625,18.669126467764375,5.079451966756582,0.1430613671746105
1772469525871374800,8.401374755859376,18.792965613400934,5.24956244970262,0.06726951901149004
1772469525881382000,8.4113818359375,18.025698800122736,5.504317547494173,0.10930705467611551
1772469525891390000,8.421389892578125,16.604796228921412,5.797506713098287,-0.16705518702864647
1772469525901397000,8.43139697265625,14.883669186651705,5.893012913697958,-0.4760657527513802
1772469525911403800,8.44140380859375,13.184559914922714,5.748877999007702,-0.5867005488999187
1772469525921410800,8.451410888671875,11.878014375263453,5.403246698504686,-0.3732430185932666
1772469525931417900,8.46141796875,10.803099662917852,4.784899111583829,-0.10897104592109098
1772469525941425000,8.4714248046875,9.972475352972745,3.833219733762741,0.00920545257758349
1772469525951432000,8.481431884765625,9.694206693124771,2.9450007284611464,0.06553973607681692
1772469525961439700,8.491439697265625,9.710590841692685,2.5636826130270958,0.042777467311732466
1772469525971447000,8.501447021484376,9.302070831078291,2.1000266983851787,0.21528850859347728
1772469525981453800,8.511453857421875,7.98278505231142,1.6520026526391505,0.557235129234381
1772469525991460900,8.5214609375,5.520848995578289,1.6446563815295696,0.8823849653858691
1772469526001468000,8.531468017578124,2.214425523242354,2.154658160021901,0.7154166529230773
1772469526011475000,8.541474853515625,-2.0835463959664104,2.486214757943153,-0.3285737827181816
1772469526021482000,8.55148193359375,-7.010795292389393,2.146405587722361,-2.175410732932389
1772469526031489800,8.56148974609375,-11.98292202593684,2.695248845784366,-3.3675282216399904
1772469526041497000,8.5714970703125,-18.029221129029988,3.805829622533917,-2.969221562004089
1772469526051503900,8.58150390625,-25.888923407030106,4.509172537434101,-1.7354679945722222
1772469526061511000,8.591510986328124,-35.12240760861635,5.885619296315312,-1.5573757190920412
1772469526071518000,8.60151806640625,-44.23228647332191,6.567132656723261,-3.281196092098951
1772469526081524700,8.611524658203125,-50.70057764754295,7.029485379812121,-3.970077350926399
1772469526091532000,8.621531982421875,-51.23628026900291,6.65540481441617,-3.899893807631731
1772469526101539800,8.631539794921874,-45.3329271630764,4.329520903682709,-4.088612252674997
1772469526111547000,8.641546875,-36.81315587923527,1.4863915269389747,-3.003910890330374
1772469526121554000,8.651553955078125,-28.74063736450672,-0.9998602020137012,-1.5733362354204057
1772469526131560400,8.661560546875,-21.994805844712257,-2.2745725334301587,-0.8009507639542222
1772469526141567500,8.6715673828125,-17.155998032808302,-2.0311504382967946,-0.7862801413059234
1772469526151574500,8.681574462890625,-14.742133056282997,-1.0695596150532365,-1.1766038393639027
1772469526161581600,8.69158154296875,-13.361595228695869,-0.06177490365058183,-1.4588390647552907
1772469526171589600,8.701589599609376,-11.375226181411742,1.0509415699534117,-1.4640478854447603
1772469526181596400,8.711596435546875,-8.793404100582004,1.8321511299967765,-1.3465712605774403
1772469526191603700,8.721603759765625,-5.731394949287176,2.5216955289080736,-1.0646601525738835
1772469526201610500,8.731610595703126,-2.724430808866024,3.2518910871595144,-0.791669871520251
1772469526211617500,8.741617431640625,0.008290273961424828,3.883608735524118,-0.670237494764477
1772469526221624600,8.75162451171875,2.800535558903217,4.574693934136628,-0.9086537444345653
1772469526231631600,8.761631591796874,5.529619746533036,5.496823976868391,-0.8679051891345531
1772469526241639700,8.7716396484375,8.038800369521976,6.360673680067062,-0.5341106760933995
1772469526251646500,8.781646484375,10.39630866805315,7.025833871567249,-0.15160216356469317
1772469526261653800,8.79165380859375,12.658974198329448,7.769998041677474,0.07292860421910882
1772469526271660500,8.80166064453125,14.403278702569008,8.500831605571507,0.22750583807183428
1772469526281667600,8.81166748046875,15.697244162118434,8.837110555839539,0.6575465016260743
1772469526291674600,8.821674560546874,16.905913849437237,8.870960218471287,0.9931596814617514
1772469526301682400,8.831682373046876,18.06099807704091,8.829994001832604,0.9913288127727806
1772469526311689700,8.841689697265625,18.98137806123495,8.545554544395207,0.883246842912212
1772469526321696500,8.851696533203125,19.65744075502157,7.930632255747914,0.944422246299684
1772469526331703600,8.86170361328125,20.144139399337767,7.4439815422266715,1.2701416625000537
1772469526341710600,8.871710693359375,20.38446206715107,7.050777758687734,1.442970318363607
1772469526351717400,8.88171728515625,19.884186148381232,6.697046738359331,1.4609331144250928
1772469526361724700,8.891724609375,18.548273059940335,6.524217059582472,1.5374883847087621
1772469526371732500,8.901732421875,16.82117804917693,6.381334190779924,1.318822983560711
1772469526381739500,8.911739501953125,15.135778153848648,6.308648893797398,0.9377307127717882
1772469526391746600,8.92174658203125,13.77883162972927,6.3715972251415245,0.6812197112236171
1772469526401753600,8.931753662109376,12.760652950084209,6.308706176942587,0.44121758060157296
1772469526411760600,8.9417607421875,11.863972990429401,6.277373465567827,0.27994795470442624
1772469526421767400,8.951767333984375,10.901585756111144,6.3291387241184704,0.4301969318281859
1772469526431774700,8.961774658203124,9.77311714823246,6.1760945267856115,0.6461371457960456
1772469526441782500,8.971782470703126,8.727793272030352,5.8417491749286645,0.923405469495058
1772469526451789600,8.98178955078125,7.869171532613039,5.365321749258041,1.2403767849639058
1772469526461796600,8.991796630859374,7.23232441240549,4.964056239816546,1.2496654223129153
1772469526471803400,9.001803466796876,6.63593263670504,4.495266177156568,1.0341656455889343
1772469526481810700,9.011810791015625,6.123346686938405,3.733046418134868,0.921154475697875
1772469526491817500,9.0218173828125,6.203020527634024,2.5643857928603886,1.1787184203650802
1772469526501824500,9.031824462890626,6.983336792099475,1.7841385019779203,1.174833249494806
1772469526511832600,9.04183251953125,7.733095421215891,1.4575912566512823,1.2615100277550517
1772469526521839600,9.051839599609375,7.695484944745898,1.0961971543490887,1.2508590160116553
1772469526531846400,9.061846435546874,7.075054706332087,0.8092647110521793,1.0679200311526655
1772469526541853400,9.071853515625,6.054341539773344,1.0926944069251416,0.6525728779319674
1772469526551860500,9.081860595703125,3.6689988933771844,2.0380251463718713,0.33306758700609207
1772469526561867500,9.091867431640624,-0.9423907404720783,2.4241702435709533,-0.30933033572901036
1772469526571875600,9.10187548828125,-6.4936307826608415,3.1654622192457316,-0.6051916796844452
1772469526581882400,9.11188232421875,-12.191620890474319,3.751858378371596,-0.75281195227243
1772469526591889700,9.1218896484375,-18.29615474039316,3.943978448551893,-0.6949252882320434
1772469526601896400,9.131896484375,-24.665904876363275,3.335263490112126,-1.4069915347486734
1772469526611903500,9.141903564453125,-30.87145813734531,2.1486346619486807,-2.5009946861848236
1772469526621910500,9.15191064453125,-36.67956690847873,1.4087962460830807,-3.768158355787396
1772469526631917600,9.16191748046875,-40.61854301869869,1.3568874874085186,-5.277630606323481
1772469526641925600,9.171925537109376,-40.50913922564983,1.55353599479869,-6.273686301487684
1772469526651932400,9.181932373046875,-36.24211072623729,0.5660146114848554,-5.301255227538943
1772469526661939700,9.191939697265624,-29.87061170077324,-1.5680942431136964,-3.491647353261709
1772469526671946500,9.201946533203126,-22.99080542577505,-3.7506677072823047,-2.2009078700214624
1772469526681953500,9.21195361328125,-17.34692275572419,-5.096643340054154,-1.426154354249686
1772469526691960600,9.221960693359375,-13.766993892419338,-4.989606276136636,-1.0396882814679294
1772469526701967400,9.23196728515625,-12.23876608800888,-3.914399887368083,-1.1699953810095787
1772469526711975700,9.2419755859375,-12.511153288602829,-2.7380782259464262,-1.580445921295136
1772469526721982500,9.251982421875,-12.844457022452353,-1.7006300515554844,-1.5273434227913618
1772469526731989500,9.261989501953124,-12.244669759094714,-0.24853768458142875,-1.2524050764098762
1772469526741996500,9.27199658203125,-11.230947474336624,0.9990997390352189,-1.083281997065991
1772469526752003300,9.28200341796875,-9.849293209940194,1.8014739599213003,-0.8106044352233409
1772469526762010600,9.2920107421875,-7.902766928222775,2.417305180107057,-0.6863364697154611
1772469526772018400,9.302018310546876,-5.455689417925477,3.065143065406382,-0.5424963367206975
1772469526782025500,9.312025390625,-2.4772972919940948,3.5565932881638407,-0.4698876486383378
1772469526792032500,9.322032470703125,0.5388946954995394,4.221022827301919,-0.524974197098799
1772469526802039600,9.33203955078125,3.0892268285661935,4.841121349543333,-0.5075578194063156
1772469526812046600,9.342046630859375,5.354232784488797,5.329348518601059,-0.5267531529374421
1772469526822053400,9.352053466796875,7.501046660751104,5.778336733204126,-0.4204086743939668
1772469526832060700,9.362060791015624,9.720310856196283,6.224705120697617,0.02638697120142169
1772469526842068500,9.372068359375,11.913250523817538,6.802129745599627,0.3830607943829149
1772469526852075500,9.382075439453125,13.825240329682826,7.320057640916109,0.33566783263236283
1772469526862082600,9.39208251953125,15.307122562503814,7.917427906259894,0.1503299060060177
1772469526872089600,9.402089599609376,16.321812815511226,8.333302955812215,0.21465828439854084
1772469526882096600,9.4120966796875,17.101801163196562,8.435408993068338,0.5424172070698813
1772469526892103400,9.422103515625,17.967157763826847,8.4792668394953,0.6692780020825565
1772469526902110500,9.4321103515625,18.86677553049922,8.387802023240923,0.8647519858006387
1772469526912118500,9.442118408203125,19.739154577112195,8.105536987233162,1.0828932169441132
1772469526922125600,9.45212548828125,20.298960543215273,7.902369453337788,1.0761210193954407
1772469526932132600,9.462132568359374,20.378425125074386,7.780308423289656,0.8457235332690178
1772469526942139600,9.4721396484375,19.880363375222682,7.783641951626539,0.7700436575803905
1772469526952146400,9.482146484375,18.689442110562325,7.782783288970589,0.8041152193345129
1772469526962153500,9.492153564453124,17.23524166539311,7.971044345635176,0.7342356274224817
1772469526972160500,9.502160400390625,15.66769307346344,8.350048338907957,0.7021259403258562
1772469526982168300,9.512168212890625,13.713547548913954,8.492835346120595,0.8030375801656394
1772469526992175600,9.522175537109375,11.638120746517181,8.378366086375713,0.9136170659303665
1772469527002182400,9.532182373046876,10.122948823034763,8.27516173248887,0.9904017610557376
1772469527012189700,9.542189697265625,9.07688961829543,8.03146345076263,1.0793640199046581
1772469527022196500,9.552196533203125,8.129681832930444,7.6211951351761815,1.3831177610777317
1772469527032203500,9.56220361328125,7.030584280964732,6.60788318478465,1.7045397723451257
1772469527042211600,9.572211669921876,5.92641132543087,5.2431999289333815,1.829627895129472
1772469527052218400,9.58221826171875,5.030131763270497,3.7281981013208627,1.7666415698625146
1772469527062225700,9.5922255859375,4.46394690978527,2.2836855219513175,1.5748552616812288
1772469527072232400,9.602232421875,3.964532576280832,1.2455343138575554,0.7818264498326927
1772469527082239700,9.61223974609375,2.7298925814032553,0.5433554743006825,-0.4170579391939565
1772469527092246500,9.62224658203125,-0.11787351523041724,0.26262422373145816,-1.3434575124710797
1772469527102253300,9.63225341796875,-4.727908227339387,0.6559042873769998,-1.7426196198925374
1772469527112261600,9.64226171875,-10.57956329473257,1.0247684332989155,-2.0043964330144224
1772469527122268400,9.652268310546875,-16.622280447685718,0.47565541838482017,-1.9287630998812615
1772469527132275500,9.662275390625,-20.731752240777013,-0.8448585870027542,-1.7414252955414353
1772469527142282500,9.672282470703125,-21.61746890786886,-1.0912772336035965,-1.831885903189331
1772469527152289300,9.682289306640625,-20.978567777740952,-1.1794114441305399,-2.001363787320256
1772469527162296300,9.69229638671875,-21.19648455247879,-1.8196352011643349,-2.221708227596432
1772469527172303400,9.702303466796875,-21.94675113111734,-2.4878482043638823,-2.35712485217154
1772469527182311400,9.7123115234375,-22.4591430196166,-3.0532284634679554,-2.21099174940139
1772469527192318500,9.722318359375,-22.280225545358658,-3.3857290642410516,-1.9670543982222675
1772469527202325200,9.7323251953125,-21.441911265432832,-3.6824715384125706,-1.8105173903375862
1772469527212332500,9.74233251953125,-19.700323618936537,-4.063292517979443,-1.364766550220549
1772469527222339300,9.75233935546875,-17.060909180837868,-4.533789092296361,-0.877151667842269
1772469527232346400,9.762346435546876,-13.94751880187392,-4.832655719015002,-0.3162755882896483
1772469527242354400,9.7723544921875,-11.071539002668857,-4.806476737141609,0.026752105586230753
1772469527252361200,9.782361328125,-9.060166447031497,-4.36108303989917,0.22570677102692424
1772469527262368500,9.792368408203124,-7.678059178170561,-3.6352564905121922,0.2529194067969918
1772469527272375300,9.802375244140626,-6.897047917178273,-2.7940838985458014,0.07850581982955336
1772469527282382600,9.812382568359375,-6.116945003202558,-1.7849400276191532,-0.10691241462454198
1772469527292389400,9.822389404296874,-5.052915257486701,-0.8410783378116786,-0.6205192318715155
1772469527302396400,9.832396484375,-4.30963722256124,-0.05470861852616071,-0.9643868837028742
1772469527312404500,9.842404541015625,-3.708081195965409,0.5027595522791147,-0.9102436439745127
1772469527322411300,9.852411376953125,-2.756166840344667,1.193368657812476,-0.5840991342298686
1772469527332418600,9.86241845703125,-1.8088818980902432,1.8014973407968877,-0.4281956019431352
1772469527342425300,9.87242529296875,-1.0483604674190283,2.33176975390166,-0.26064594592843204
1772469527352432400,9.882432373046875,-0.17738485786318778,2.6646169761553407,-0.22372973533291368
1772469527362439400,9.892439453125,0.8705255277007817,2.9449215257450936,0.009564951806049793
1772469527372447500,9.902447509765626,2.1728619252324104,3.094238226987421,0.18211700095161795
1772469527382454300,9.912454345703125,3.8161967027693984,3.418344801163673,0.03448427074085921
1772469527392461300,9.92246142578125,5.508578127548098,3.7175454821422695,-0.23091133566638453
1772469527402468400,9.93246826171875,7.2545391668230295,4.001124523358047,-0.2824476077667437
1772469527412475400,9.942475341796875,9.116924691563844,4.304864016810059,0.0092929299316369
1772469527422482400,9.952482421875,11.031368320322036,4.618541843691468,0.5279732693169266
1772469527432489500,9.962489501953126,12.663565033251047,4.686312188364565,0.8560538616906851
1772469527442497500,9.97249755859375,14.032196149945259,4.5991249032989145,0.9665762835059314
1772469527452504300,9.98250439453125,15.097339994382857,4.573346026659012,0.9033885904479771
1772469527462511400,9.992511474609374,15.728366445612906,4.46257708273679,0.7832883390787988
1772469527472518400,10.002518310546876,15.664095925754308,4.314239747920632,0.44322380585744975
1772469527482525400,10.012525390625,15.502378592622279,4.219045974270999,0.2664736657012254
1772469527492532500,10.022532470703124,15.492242983055114,4.318608756785094,0.3772870332870632
1772469527502539500,10.03253955078125,14.97120484676361,4.479771670904755,0.5383567526979371
1772469527512547600,10.042547607421875,13.44201375027895,4.5309000928565855,0.22121267447806894
1772469527522554400,10.052554443359375,11.68752570567727,4.3502334368437525,-0.36570663173906504
1772469527532561400,10.0625615234375,10.513290202879904,5.237797777628899,-0.7135455252889543
1772469527542568400,10.072568359375,9.1063004216969,5.157774977365136,-0.22402983252434058
1772469527552575200,10.0825751953125,7.745413635519147,5.19560932571888,0.5295668951839209
1772469527562582500,10.09258251953125,7.0160916452318425,4.882151863589883,1.2951730817735194
1772469527572590300,10.10259033203125,6.770332923844456,4.268549717630446,1.8523533755481243
1772469527582597400,10.112597412109375,6.8337319215655326,3.5609240108445284,2.2579278342299163
1772469527592604400,10.1226044921875,6.9046835266232485,2.6251833759114143,2.538187229503691
1772469527602611200,10.132611083984376,6.908980347034335,1.3892077485159038,2.762327993322909
1772469527612618500,10.142618408203125,7.227759880968928,0.1987622846737504,2.704215411572158
1772469527622625300,10.152625244140625,7.895016752487421,0.17492869688272475,2.5160744741559027
1772469527632633300,10.16263330078125,6.764563692793249,0.567433684502542,2.1134891142874954
1772469527642640400,10.172640380859375,2.6366496495604514,1.4026961756423115,1.526923151552677
1772469527652647400,10.1826474609375,-4.707299154552817,1.9990831290371716,1.1080366452246904
1772469527662654500,10.192654541015624,-12.945773370635509,1.0001695602238179,0.951536316088587
1772469527672661200,10.2026611328125,-19.13207481865883,-0.6218700619585812,1.4240344394862652
1772469527682668500,10.21266845703125,-21.621135029160975,-1.7061556831091642,1.8473709109604357
1772469527692675300,10.22267529296875,-21.794024913692475,-2.6182290267288684,1.4132586323194205
1772469527702683400,10.232683349609376,-22.288055800592897,-3.6363305494844913,0.7714422723319381
1772469527712690400,10.2426904296875,-24.07062076964378,-4.4788697536289686,0.008573584414832294
1772469527722697500,10.252697509765625,-26.082054115557668,-4.815106326059997,-1.000412575199455
1772469527732704500,10.26270458984375,-26.750181340169906,-4.8236222254708405,-1.2403962203167378
1772469527742711300,10.272711181640625,-25.179094052720068,-4.8326603951901195,-0.34647293895892795
1772469527752718300,10.28271826171875,-21.68977660371065,-5.265744353696704,0.4981778505120426
1772469527762725400,10.292725341796874,-17.486678432416916,-5.728449543485045,0.6380508699741214
1772469527772733400,10.3027333984375,-13.433159412693977,-5.543401019126176,0.882123611035943
1772469527782740500,10.312740478515625,-10.20840943043828,-4.791427052047848,0.8469085783351212
1772469527792747300,10.322747314453125,-7.964842568385601,-3.628441257539391,0.3912856018926948
1772469527802754300,10.33275439453125,-6.573943505781888,-2.2320286922112107,-0.15497003256259484
1772469527812761300,10.34276123046875,-5.645872967085242,-0.7586015685245394,-0.6483433506034314
1772469527822768400,10.352768310546875,-4.939359605455398,0.452150185765326,-0.9099160194553434
1772469527832776200,10.362776123046874,-4.014674617543816,1.1936322771847248,-0.5700658596370369
1772469527842783500,10.372783447265626,-2.4748358703166247,1.8216206758931277,-0.17177202295009045
1772469527852790300,10.382790283203125,-0.7568745986014604,2.2054268087506292,0.03183863333659246
1772469527862797300,10.39279736328125,0.584254178661108,2.686843713271618,-0.17316607112437485
1772469527872804400,10.402804443359376,1.8202771523296832,3.1968466608077284,-0.37057610093895343
1772469527882811400,10.412811279296875,3.2016637057006356,3.767410167768597,-0.330015323296003
1772469527892819500,10.4228193359375,4.756318913787603,4.409386467558146,-0.18633178736874834
1772469527902826200,10.432826171875,6.282631239965558,4.939826638445258,0.10654032077598385
1772469527912833500,10.44283349609375,7.907612030166387,5.456391428714991,0.3457206592869013
1772469527922840300,10.45284033203125,9.546304534855484,5.277254174226522,-0.3442954853219911
1772469527932847400,10.462847412109374,10.89241694574952,4.950592362609505,-0.9513815639182924
1772469527942854400,10.4728544921875,11.942212414407729,5.007068283069134,-1.2972722460098565
1772469527952861200,10.482861083984375,12.024254737800359,5.305686487984657,-1.1067441211961209
1772469527962869500,10.492869384765624,11.240455307394265,5.627880798798799,-0.3883373465463519
1772469527972876300,10.502876220703126,10.392532656645773,6.191966049656272,0.7657765747204422
1772469527982883300,10.51288330078125,10.100567479878663,6.569112432363629,1.7674265827603637
1772469527992890400,10.522890380859375,10.44063880816698,6.573369505286216,2.0379500353090463
1772469528002897200,10.532897216796876,11.230498561525344,6.337669236576557,1.73794797481969
1772469528012904400,10.542904541015625,12.02438567070365,6.2011237541019915,1.410429400242865
1772469528022912300,10.552912353515625,12.139570385241507,5.922236085572838,1.2092664841681717
1772469528032919300,10.562919189453124,11.384546967464685,5.642526579266786,1.0589365142300724
1772469528042926300,10.57292626953125,10.325899499309063,5.765191420426964,1.2307216523900628
1772469528052933400,10.582933349609375,9.583300094297527,5.201467988619208,0.46469139516949654
1772469528062940400,10.5929404296875,8.710347631710768,4.709852346166968,-0.0714427267426392
1772469528072947200,10.602947265625,7.997421480429172,4.299315735033154,-0.1864652044900693
1772469528082955300,10.612955322265625,7.580752650150656,3.723504975068569,-0.11837739136563613
1772469528092962300,10.62296240234375,6.73255995028913,2.9171646270304916,0.25787973261810837
1772469528102969300,10.63296923828125,5.81024052246511,2.105672303056717,0.6791233965314925
1772469528112976400,10.642976318359375,5.555148740065097,0.8198135775953531,0.36799715382903814
1772469528122983400,10.6529833984375,5.697413769230246,-0.4305053401902318,-0.3792632287308573
1772469528132990500,10.662990478515624,5.350605826163291,-1.533693084079027,-0.9204911894835531
1772469528142998300,10.672998291015626,3.970431571191549,-2.1034329996973273,-1.4960206482887268
1772469528153006300,10.68300634765625,0.920820713698864,-1.5636737963229417,-2.8675115383282304
1772469528163013000,10.69301318359375,-4.571183295667171,-0.6448226291313767,-4.1310616936087605
1772469528173020400,10.7030205078125,-11.37086681715846,-1.144154837310314,-4.51572035164237
1772469528183027200,10.713027099609375,-16.207958472794292,-1.6794588148415088,-3.3723850140213965
1772469528193034200,10.7230341796875,-17.45302400009632,-1.118643671695888,-1.854192573674023
1772469528203041300,10.733041259765624,-15.551656126010418,-0.23706541958302257,-0.2456842679116875
1772469528213049000,10.743049072265626,-12.886636122012138,0.23512013073414562,1.2233628140598536
1772469528223056400,10.753056396484375,-11.505513772535323,-0.04634411028474569,2.3165961501672863
1772469528233063200,10.763063232421874,-11.057706876671313,-0.4552653951764106,3.0891300901934504
1772469528243070500,10.773070556640626,-11.02543191601038,-0.6223483469948172,3.0894542075812814
1772469528253077200,10.7830771484375,-11.05883383487463,-1.383528241574764,2.5855536685734988
1772469528263084300,10.793084228515625,-10.396362444067,-2.9384470690339803,1.8254206526979804
1772469528273092400,10.80309228515625,-9.198250391119718,-4.323566671453416,1.4092147637560963
1772469528283099100,10.81309912109375,-8.303367836275696,-5.516713503208756,0.6980239848997444
1772469528293106400,10.8231064453125,-8.118021205753088,-6.3511038876891135,-0.8654465439360588
1772469528303113200,10.83311328125,-8.05867236020565,-6.493294098052382,-1.8411697182327509
1772469528313120300,10.843120361328126,-8.044953046932816,-5.946090423890948,-1.9524179701045155
1772469528323127300,10.853127197265625,-7.970580819776654,-4.965036483025551,-1.8496862021654843
1772469528333135400,10.86313525390625,-7.207702012324333,-4.092788953837752,-2.0562498082399365
1772469528343142100,10.87314208984375,-6.153124570086598,-2.7450559560045598,-1.3573872536242007
1772469528353149200,10.883149169921875,-4.844223407211899,-1.8891230172798037,-1.5409804646082221
1772469528363156200,10.89315625,-3.2920494945466516,-1.3517530471295118,-2.4139380417615173
1772469528373163300,10.903163330078126,-2.114098186096549,-0.7543617389976978,-2.7603631229907273
1772469528383170300,10.91317041015625,-0.7726525979697704,0.43272973824143407,-1.911623310640454
1772469528393177300,10.92317724609375,0.7614549121290445,1.881656919182837,-0.543082210317254
1772469528403185400,10.933185302734374,1.4119500339388846,2.935959343871474,-0.04188552344068885
1772469528413192200,10.943192138671876,1.6019290004372595,3.892613002973795,0.08221422762712463
1772469528423199200,10.95319921875,1.9856191056996584,4.384324214754998,0.2767363174478523
1772469528433206300,10.963206298828124,2.55567290957272,5.099343246662617,0.8438616849198937
1772469528443213300,10.97321337890625,3.2767806137442586,5.631494313120841,1.8115290515981612
1772469528453220400,10.983220458984375,4.463869168373942,5.569587015262246,2.1558844869464635
1772469528463228200,10.993228271484375,5.617941588586569,5.590474904990196,2.417688188075274
1772469528473235500,11.0032353515625,6.763610337591171,5.199999085110425,2.1461755783587693
1772469528483242200,11.0132421875,7.613319287234544,4.074847054433822,0.48934009873569007
1772469528493249300,11.023249267578125,8.140875427117944,2.9844477727085352,-1.7417780545018613
1772469528503256300,11.03325634765625,8.182142672529816,2.5739286972314117,-2.2014674036003647
1772469528513263000,11.04326318359375,8.195312535226345,2.868597872260213,-1.115588960300386
1772469528523270400,11.0532705078125,8.123525063866376,3.361199603140354,-0.06878310191221534
1772469528533278200,11.0632783203125,7.96976658078432,3.7996570713788267,0.6271047477416694
1772469528543285200,11.07328515625,7.185994038385153,4.155209461915493,0.8554791305426508
1772469528553292300,11.083292236328125,6.037681496873498,4.262102733448147,0.6249879747834056
1772469528563299000,11.093299072265625,5.539914930576086,4.289447251969576,0.6907640038341284
1772469528573306400,11.103306396484374,5.632939251232147,4.265988634970784,1.0674755022555589
1772469528583313200,11.113313232421875,5.653763428074122,3.8909517917633054,1.3225044485524295
1772469528593320400,11.123320556640625,5.447713616740703,3.189983789300918,1.1662266761258244
1772469528603328300,11.133328369140624,4.9292865397304295,2.4490128622740506,0.8077044759981333
1772469528613335300,11.143335205078126,4.465789907303452,1.998525349023938,0.8888499966815113
1772469528623342300,11.15334228515625,3.9914848806142804,1.8112474581778049,1.3184013971477746
1772469528633349000,11.16334912109375,3.09387670019865,1.4668880773067474,1.3791060412183402
1772469528643356400,11.1733564453125,1.8944465503901242,1.0939876616060733,0.5752927274398505
1772469528653363200,11.18336328125,0.6040922670751809,0.746045161551237,-0.29479221688657997
1772469528663371300,11.193371337890625,-0.5723632498592138,0.7129664832919835,-0.9163926681235433
1772469528673378300,11.20337841796875,-1.6549720238387584,0.7250368603140115,-1.2526144813768565
1772469528683385300,11.21338525390625,-2.4938831006139517,0.5893617309331893,-1.0839312547549604
1772469528693392400,11.223392333984375,-2.8013217408448456,0.23908581949472427,-0.505182541642338
1772469528703399200,11.233399169921874,-2.6110370693981646,-0.09550853868722915,0.1709635926440358
1772469528713406200,11.24340625,-2.4681559541612863,-0.27840485344827176,0.48095133283585306
1772469528723413200,11.253413330078125,-2.1781296365022658,-0.40302082867622374,0.711766459852457
1772469528733421300,11.26342138671875,-1.9724439823061226,-0.5082213248163462,0.7535216349117457
1772469528743428400,11.273428466796876,-2.1998861257582902,-0.6168471192300319,0.5774667104780674
1772469528753435100,11.28343505859375,-2.960215833249688,-0.8024199597239494,0.22507833693027496
1772469528763442200,11.293442138671875,-3.84748908213377,-0.9078864133238792,0.08341916470378637
1772469528773449200,11.30344921875,-4.721166351863742,-1.1367781710624694,0.03518412610590458
1772469528783456300,11.313456298828125,-5.184543157303333,-1.2553607113450764,-0.038031039969623086
1772469528793463300,11.32346337890625,-5.417548195579648,-1.4859925907492637,-0.2768457874380052
1772469528803471400,11.333471435546874,-5.338688009354472,-1.7801488478198646,-0.43135304306074973
1772469528813478100,11.34347802734375,-4.926362176716327,-2.055790666295588,-0.5323199932843447
1772469528823485200,11.353485107421875,-4.217122604992985,-2.390383855433762,-0.86634663458094
1772469528833492200,11.3634921875,-3.2466631233781573,-2.7771286720916626,-1.0705730298794804
1772469528843499300,11.373499267578126,-2.158621802955866,-3.1034397705748678,-0.8568909701019525
1772469528853506300,11.38350634765625,-1.0058943676114083,-3.34449689014256,-0.45958924972489473
1772469528863513300,11.393513427734375,0.5223790295064449,-3.5883915712237355,-0.3719184189260006
1772469528873521400,11.403521484375,1.2018038932025432,-3.594108487565815,-0.4151315377086401
1772469528883528200,11.413528076171875,0.6695195557534694,-3.473442711268365,-0.20722090093940496
1772469528893535200,11.42353515625,-0.42729368466734885,-3.200639623349905,-0.14432152330353856
1772469528903542300,11.433542236328124,-1.4622481425464153,-2.6142545701399444,-0.12659312051981686
1772469528913549300,11.44354931640625,-2.14624922811687,-2.068256472375989,-0.14102701180279253
1772469528923556400,11.453556396484375,-1.9930618229210375,-1.4823779073834418,0.06724281366765499
1772469528933563100,11.463563232421874,-1.0069172809183597,-0.9751938166603445,0.44224692364931106
1772469528943571500,11.473571533203126,0.15109540135264396,-0.5803124552980065,0.7309241647869348
1772469528953578200,11.483578125,0.6746727007329464,-0.37170769878476856,0.5933579609625041
1772469528963585000,11.4935849609375,0.9043991557300091,-0.22521862218379973,0.478442126493901
1772469528973592300,11.50359228515625,1.21059393337965,0.0007847206369042396,0.31902284117117524
1772469528983599000,11.51359912109375,1.459219734635949,0.11424158846884966,0.19254092594087122
1772469528993606400,11.5236064453125,1.5426625724762677,0.1620294678211212,0.1251471594952047
1772469529003613200,11.53361328125,1.5823124458193778,0.2517325350999832,0.21987258498072623
1772469529013621200,11.543621337890626,1.342444536036253,0.45546413261890406,0.4642633790157735
1772469529023628300,11.553628173828125,1.0133148730009793,0.47343993429243564,0.6234792507208884
1772469529033635000,11.563635009765624,0.809489167457819,0.49749914753288027,0.5915716620676219
1772469529043642400,11.573642333984376,0.7656289829432964,0.6002338380813599,0.651201370383054
1772469529053649200,11.583649169921875,0.8243710947692394,0.6807996591806411,0.8573739313133061
1772469529063656400,11.593656494140625,0.9099947837799787,0.641097763389349,1.039541201147437
1772469529073663200,11.603663330078126,1.067197269836068,0.45878772408366203,0.9754501295089721
1772469529083671300,11.61367138671875,1.274968498134613,0.38214872103929515,0.9418671549893916
1772469529093678300,11.62367822265625,1.3590759373635053,0.3644453065663576,0.9165477125547826
1772469529103685000,11.63368505859375,1.2602993367910384,0.2736886385813355,0.684577570284158
1772469529113692200,11.643692138671875,1.0439525878489018,0.09077478816360235,0.5165976696260273
1772469529123699200,11.65369921875,0.8451835811734199,-0.035733284421265124,0.5566774588190019
1772469529133706200,11.663706298828124,0.6813789203733205,-0.07746814734488726,0.6049661273002624
1772469529143712300,11.673712158203125,0.46654140695035456,-0.21416794359833,0.5864388292238116
1772469529153720000,11.683719970703125,0.3719651806771755,-0.2986760725826025,0.4573104911379516
1772469529163727400,11.693727294921874,0.31340953133404253,-0.3437807042002678,0.36071722595393657
1772469529173734100,11.703734130859376,0.2890940052449703,-0.41198008794039487,0.3177962219856679
1772469529183741400,11.713741455078125,0.3014472908616066,-0.4919236854881048,0.32266514319628475
1772469529193748200,11.723748291015625,0.38096447969079017,-0.5059241537898779,0.3182632549755275
1772469529203755300,11.73375537109375,0.43185061731934543,-0.5121726927906275,0.3539031620249152
1772469529213762300,11.74376220703125,0.2942266919583082,-0.6360927947089076,0.30538404578864575
1772469529223770000,11.75377001953125,0.2130418621778488,-0.7633081387802958,0.25810031656622884
1772469529233777400,11.76377734375,0.21031506756246088,-0.8431190498590468,0.2654194074079394
1772469529243784200,11.7737841796875,0.1846340983390808,-0.9054819825306534,0.28428192878812547
1772469529253791200,11.783791259765625,0.1514636501431465,-0.9112640730634332,0.34451223334521053
1772469529263798300,11.79379833984375,-0.036791561302542686,-0.8025199129670858,0.3755602825596928
1772469529273805000,11.80380517578125,-0.3434066101908684,-0.7141340657666325,0.3176914464369416
1772469529283812400,11.813812255859375,-0.5057219092160463,-0.6844312936812639,0.245617559351027
1772469529293820200,11.823820068359375,-0.5623223328381777,-0.5762368764221668,0.23643077494129539
1772469529303827200,11.8338271484375,-0.5006973590523004,-0.5069488206624985,0.2661018367141485
1772469529313834200,11.843834228515625,-0.2549661101937294,-0.4821379122719168,0.2808722664751112
1772469529323841300,11.85384130859375,0.07269640289843082,-0.44651217987835407,0.253270558322221
1772469529333848300,11.863848388671874,0.6315875922441482,-0.22116759322732685,0.5757990695267915
1772469529343855000,11.873855224609375,0.6394938353240489,-0.01555032809227705,1.0330411716036498
1772469529353862400,11.8838623046875,0.04362403767108917,-0.46098611091077324,0.6031383273512124
1772469529363869200,11.893869140625,-0.22564883029460905,-0.46388680078834293,0.31886509332619606
