time,seconds_elapsed,z,y,x
1772469472439546000,0.186546142578125,-0.23587071895599365,-0.2213628590106964,-0.0514429435133934
1772469472449553000,0.196552978515625,-0.21836957335472107,-0.23966288566589355,-0.06558223068714142
1772469472459560200,0.206560302734375,-0.15464545786380768,-0.18374022841453552,-0.09869863837957382
1772469472469567000,0.21656689453125,-0.08730410039424896,-0.10084984451532364,-0.1389288753271103
1772469472479574300,0.22657421875,-0.062186505645513535,-0.048577047884464264,-0.16690272092819214
1772469472489581000,0.2365810546875,-0.07138320058584213,-0.014419798739254475,-0.197102352976799
1772469472499588000,0.246588134765625,-0.09275320172309875,-0.015162287279963493,-0.25912389159202576
1772469472509595100,0.25659521484375,-0.11380979418754578,-0.07255738228559494,-0.31209948658943176
1772469472519602200,0.266602294921875,-0.10601498931646347,-0.09104318171739578,-0.33983364701271057
1772469472529609200,0.276609130859375,-0.0759439468383789,-0.1281592845916748,-0.3518446683883667
1772469472539616000,0.286615966796875,-0.027730349451303482,-0.20192058384418488,-0.33417028188705444
1772469472549623000,0.296623046875,0.048508673906326294,-0.25633835792541504,-0.3404695987701416
1772469472559630000,0.306630126953125,0.09732255339622498,-0.3094625473022461,-0.378850519657135
1772469472569637000,0.31663720703125,0.10639859735965729,-0.31212013959884644,-0.39985620975494385
1772469472579644200,0.32664404296875,0.06949198246002197,-0.2957536578178406,-0.3754507303237915
1772469472589651200,0.336651123046875,-0.0135209234431386,-0.30294090509414673,-0.31445616483688354
1772469472599657000,0.346656982421875,-0.10782025754451752,-0.338299423456192,-0.2523757517337799
1772469472609664300,0.356664306640625,-0.176009401679039,-0.3925078809261322,-0.25613296031951904
1772469472619671000,0.366671142578125,-0.18969884514808655,-0.4494694471359253,-0.30486613512039185
1772469472629678000,0.376677978515625,-0.15006262063980103,-0.48411473631858826,-0.4088338315486908
1772469472639685000,0.38668505859375,-0.09087971597909927,-0.4631956219673157,-0.5560368895530701
1772469472649692200,0.396692138671875,-0.035430796444416046,-0.25754934549331665,-0.7148752808570862
1772469472659699200,0.40669921875,0.0054188990034163,0.02717961184680462,-0.8470264077186584
1772469472669706000,0.4167060546875,0.023242194205522537,0.36292654275894165,-0.9648801684379578
1772469472679713000,0.426713134765625,0.05820656940340996,0.6025841236114502,-1.0084558725357056
1772469472689720000,0.436719970703125,0.09496365487575531,0.6233545541763306,-0.9577711820602417
1772469472699727000,0.44672705078125,0.1258656531572342,0.5602126121520996,-0.7761473059654236
1772469472709734100,0.456734130859375,0.14567317068576813,0.40473735332489014,-0.5080510973930359
1772469472719741200,0.4667412109375,0.14413012564182281,0.13690964877605438,-0.20998498797416687
1772469472729748000,0.476748046875,0.1309647113084793,-0.07284955680370331,0.09661298990249634
1772469472739755300,0.48675537109375,0.133487269282341,-0.062204375863075256,0.3529214859008789
1772469472749762000,0.496761962890625,0.15557120740413666,-0.01995110884308815,0.4883621633052826
1772469472759769000,0.50676904296875,0.19581210613250732,-0.12590231001377106,0.5321860909461975
1772469472769776000,0.516776123046875,0.2569509446620941,-0.277435302734375,0.5175026059150696
1772469472779783000,0.526782958984375,0.29344505071640015,-0.4699333906173706,0.471174031496048
1772469472789790200,0.536790283203125,0.26768770813941956,-0.689582109451294,0.45572471618652344
1772469472799797000,0.546796875,0.23008228838443756,-0.7531241178512573,0.5303730964660645
1772469472809804300,0.55680419921875,0.19552096724510193,-0.6131680011749268,0.6074162125587463
1772469472819811000,0.56681103515625,0.17371101677417755,-0.43038007616996765,0.6171346306800842
1772469472829818000,0.576818115234375,0.18270809948444366,-0.32469040155410767,0.5991045832633972
1772469472839825200,0.5868251953125,0.23057761788368225,-0.3481086492538452,0.591644823551178
1772469472849832000,0.59683203125,0.24785839021205902,-0.5193986892700195,0.5644158720970154
1772469472859839200,0.606839111328125,0.2039007842540741,-0.7545494437217712,0.5490222573280334
1772469472869846000,0.616845947265625,0.13303828239440918,-0.8802157044410706,0.5639166235923767
1772469472879853000,0.62685302734375,0.07212433218955994,-0.8909578323364258,0.5576717257499695
1772469472889860000,0.636860107421875,0.031904615461826324,-0.8781724572181702,0.511339008808136
1772469472899867100,0.6468671875,0.025100769475102425,-0.863158106803894,0.4456348717212677
1772469472909873000,0.656872802734375,0.0521916039288044,-0.805245578289032,0.36937615275382996
1772469472919880200,0.666880126953125,0.10760213434696198,-0.6956431865692139,0.2866538465023041
1772469472929887000,0.676886962890625,0.15773430466651917,-0.5549915432929993,0.18765240907669067
1772469472939894000,0.68689404296875,0.20236223936080933,-0.4017457664012909,0.08259736001491547
1772469472949901000,0.696901123046875,0.21658630669116974,-0.19623281061649323,-0.022132067009806633
1772469472959908000,0.706908203125,0.2066039890050888,0.029300449416041374,-0.1355675458908081
1772469472969915100,0.7169150390625,0.1883147805929184,0.16887155175209045,-0.23956793546676636
1772469472979922200,0.726922119140625,0.17933885753154755,0.19523417949676514,-0.2989414930343628
1772469472989929000,0.736928955078125,0.17790478467941284,0.13247278332710266,-0.29418158531188965
1772469472999936000,0.74693603515625,0.17617559432983398,0.030155986547470093,-0.26434510946273804
1772469473009943000,0.756943115234375,0.1662169247865677,-0.07435037940740585,-0.22073590755462646
1772469473019950000,0.7669501953125,0.16172896325588226,-0.15482817590236664,-0.18128091096878052
1772469473029957000,0.77695703125,0.14957918226718903,-0.20150449872016907,-0.15559424459934235
1772469473039964000,0.7869638671875,0.14427043497562408,-0.18584990501403809,-0.14419272541999817
1772469473049971200,0.79697119140625,0.16454370319843292,-0.11504540592432022,-0.13328483700752258
1772469473059978000,0.80697802734375,0.18460716307163239,-0.06299819052219391,-0.1376526802778244
1772469473069985000,0.816985107421875,0.1892513632774353,-0.04449494183063507,-0.14356102049350739
1772469473079992000,0.826991943359375,0.19314703345298767,-0.038042373955249786,-0.11620689928531647
1772469473089998800,0.836998779296875,0.19061903655529022,-0.060061074793338776,-0.05425049737095833
1772469473100006100,0.847006103515625,0.18061485886573792,-0.12209941446781158,0.005012559238821268
1772469473110013000,0.857012939453125,0.15663780272006989,-0.1736799031496048,0.03792111575603485
1772469473120020200,0.867020263671875,0.12807193398475647,-0.1804126501083374,0.06007542461156845
1772469473130027000,0.877027099609375,0.09049592912197113,-0.15171442925930023,0.06907442212104797
1772469473140034000,0.887033935546875,0.04843955859541893,-0.10050608962774277,0.07772783190011978
1772469473150041000,0.897041015625,0.009770948439836502,-0.048540808260440826,0.09700674563646317
1772469473160048000,0.907048095703125,-0.036433566361665726,-0.010328441858291626,0.11022188514471054
1772469473170055200,0.91705517578125,-0.07085789740085602,-0.002437374321743846,0.11965954303741455
1772469473180062000,0.92706201171875,-0.0885721817612648,-0.004975633230060339,0.13191434741020203
1772469473190069000,0.937069091796875,-0.10198141634464264,0.0021567591466009617,0.15877841413021088
1772469473200076000,0.947075927734375,-0.11515501141548157,0.005709415767341852,0.18651257455348969
1772469473210083000,0.9570830078125,-0.13186919689178467,-0.02039690688252449,0.20965254306793213
1772469473220090000,0.967090087890625,-0.14486221969127655,-0.05660790577530861,0.23122654855251312
1772469473230097200,0.97709716796875,-0.151215597987175,-0.0690440684556961,0.24532842636108398
1772469473240104000,0.98710400390625,-0.16703955829143524,-0.06554893404245377,0.2398495078086853
1772469473250111000,0.997111083984375,-0.18360139429569244,-0.043735235929489136,0.22353501617908478
1772469473260118000,1.007117919921875,-0.18563471734523773,-0.021221939474344254,0.19938334822654724
1772469473270125000,1.017125,-0.15981613099575043,0.019136618822813034,0.16123157739639282
1772469473280132000,1.027132080078125,-0.11926285177469254,0.045618824660778046,0.11211063712835312
1772469473290139000,1.037138916015625,-0.07119420915842056,0.07485755532979965,0.06232680007815361
1772469473300146200,1.047146240234375,-0.03139406442642212,0.09642569720745087,0.0232198778539896
1772469473310153000,1.057153076171875,-0.002393532544374466,0.10196664184331894,-0.01529984176158905
1772469473320160300,1.06716015625,0.015725815668702126,0.09508662670850754,-0.04369952529668808
1772469473330167000,1.0771669921875,0.024274742230772972,0.07869023829698563,-0.043562404811382294
1772469473340174000,1.087174072265625,0.02148454822599888,0.07392185181379318,-0.028409549966454506
1772469473350181000,1.09718115234375,0.014558912254869938,0.07768291980028152,-0.004522890783846378
1772469473360188000,1.10718798828125,0.00939211342483759,0.05482234060764313,0.005904716439545155
1772469473370195200,1.1171953125,0.0030595550779253244,0.03243817761540413,0.006720063276588917
1772469473380202000,1.127201904296875,0.007246310822665691,0.027970727533102036,-0.0023211021907627583
1772469473390208000,1.1372080078125,0.008661159314215183,0.02373034879565239,0.003227120265364647
1772469473400215000,1.147215087890625,0.010944287292659283,0.03221464529633522,0.008843726478517056
1772469473410222000,1.15722216796875,0.012577563524246216,0.05149756371974945,0.005747826769948006
1772469473420228900,1.167228759765625,0.0063186027109622955,0.0716228038072586,0.0073888665065169334
1772469473430236200,1.177236083984375,-0.00047357112634927034,0.08727886527776718,0.0009824000298976898
1772469473440243000,1.187242919921875,-0.005229710601270199,0.0936795100569725,-0.0030024878215044737
1772469473450250200,1.197250244140625,-0.006169494241476059,0.08966682106256485,-0.005056969355791807
1772469473460257000,1.207257080078125,-0.007171908393502235,0.07394405454397202,0.0016374187543988228
1772469473470264000,1.21726416015625,-0.013341565616428852,0.0500638484954834,0.019813433289527893
1772469473480271000,1.22727099609375,-0.01570671796798706,0.028682127594947815,0.03485789895057678
1772469473490278000,1.23727783203125,-0.013262337073683739,0.01759512908756733,0.04833553358912468
1772469473500285200,1.24728515625,-0.012678572908043861,0.010029887780547142,0.060831885784864426
1772469473510292000,1.2572919921875,-0.008081644773483276,0.00888622272759676,0.04612286016345024
1772469473520299000,1.267299072265625,-0.014705725945532322,0.02010186016559601,0.03380840644240379
1772469473530306000,1.27730615234375,-0.020458998158574104,0.03642047941684723,0.027067530900239944
1772469473540313000,1.28731298828125,-0.020945290103554726,0.04395243525505066,0.036824021488428116
1772469473550320000,1.297320068359375,-0.01585421711206436,0.033840082585811615,0.04375007748603821
1772469473560327200,1.3073271484375,-0.0026316214352846146,0.024342186748981476,0.055407002568244934
1772469473570334000,1.317333984375,0.011113617569208145,0.015687452629208565,0.06095214560627937
1772469473580341000,1.327341064453125,0.023580674082040787,0.010346217080950737,0.06764306873083115
1772469473590348000,1.33734814453125,0.028598163276910782,0.024552345275878906,0.07180144637823105
1772469473600355000,1.34735498046875,0.028332380577921867,0.03697945550084114,0.05445201322436333
1772469473610362000,1.357362060546875,0.024381356313824654,0.04191768541932106,0.021487999707460403
1772469473620369000,1.367368896484375,0.03103659674525261,0.038459572941064835,-0.013260126113891602
1772469473630376200,1.377376220703125,0.04775121808052063,0.03608570620417595,-0.030918898060917854
1772469473640383000,1.387383056640625,0.055113524198532104,0.04483499005436897,-0.03077988140285015
1772469473650390300,1.397390380859375,0.053075406700372696,0.04997149109840393,-0.023361550644040108
1772469473660397000,1.40739697265625,0.042536210268735886,0.046762384474277496,-0.01826825551688671
1772469473670403800,1.41740380859375,0.02900322712957859,0.03534616902470589,-0.007194924168288708
1772469473680411100,1.4274111328125,0.020796962082386017,0.030093885958194733,0.0063794744201004505
1772469473690418000,1.43741796875,0.007098677568137646,0.012953927740454674,0.027944011613726616
1772469473700425200,1.44742529296875,-0.01254825945943594,-0.0041318475268781185,0.03519553691148758
1772469473710432000,1.457431884765625,-0.023188471794128418,-0.017933819442987442,0.028394941240549088
1772469473720439000,1.46743896484375,-0.031162241473793983,-0.023783186450600624,0.006394566036760807
1772469473730446000,1.477446044921875,-0.02920805849134922,-0.01745596155524254,-0.02067537046968937
1772469473740453000,1.487453125,-0.023058287799358368,0.006351898889988661,-0.032329630106687546
1772469473750460200,1.497460205078125,-0.017178693786263466,0.026813507080078125,-0.03815804794430733
1772469473760467000,1.507467041015625,-0.017550738528370857,0.02792244777083397,-0.03568636626005173
1772469473770474000,1.517473876953125,-0.012181407772004604,0.038854748010635376,-0.023565253242850304
1772469473780481000,1.52748095703125,-0.008125945925712585,0.03498011454939842,-0.01277385838329792
1772469473790488000,1.537488037109375,-0.0048202513717114925,0.03312111645936966,-0.005330621264874935
1772469473800495000,1.5474951171875,-0.006559295114129782,0.029562601819634438,-0.0008274824358522892
1772469473810502100,1.557502197265625,-0.014690721407532692,0.008964331820607185,0.00240772170946002
1772469473820509000,1.567509033203125,-0.026341518387198448,-0.01609441637992859,-0.005179624073207378
1772469473830516200,1.57751611328125,-0.03727952763438225,-0.02353869378566742,-0.008638089522719383
1772469473840523000,1.58752294921875,-0.039806067943573,-0.025561895221471786,-0.005396489519625902
1772469473850530000,1.597530029296875,-0.03834474831819534,-0.016153551638126373,0.004350742325186729
1772469473860537000,1.607537109375,-0.03181520849466324,-0.0033346915151923895,0.013793512247502804
1772469473870544000,1.6175439453125,-0.030392548069357872,-0.0025631594471633434,0.010168241336941719
1772469473880551200,1.62755126953125,-0.028674544766545296,-0.0075965337455272675,0.0006916490383446217
1772469473890558000,1.637557861328125,-0.034180667251348495,-0.0015777661465108395,-0.01014801487326622
1772469473900565200,1.647565185546875,-0.03452501446008682,0.000037707388401031494,-0.017646411433815956
1772469473910572000,1.657572021484375,-0.04502488300204277,-0.010905815288424492,-0.022279007360339165
1772469473920578600,1.66757861328125,-0.053900666534900665,-0.027159886434674263,-0.01954793557524681
1772469473930585600,1.677585693359375,-0.06600850820541382,-0.031076528131961823,-0.010029326193034649
1772469473940592600,1.687592529296875,-0.06888286024332047,-0.029584623873233795,-0.00318526872433722
1772469473950599400,1.697599365234375,-0.06659644842147827,-0.016352834179997444,-0.004953129217028618
1772469473960606500,1.7076064453125,-0.05797605961561203,-0.009600389748811722,-0.02084660716354847
1772469473970613500,1.717613525390625,-0.04912051558494568,-0.0024309244472533464,-0.03154710307717323
1772469473980620500,1.72762060546875,-0.044999271631240845,-0.003441327717155218,-0.028672754764556885
1772469473990627600,1.737627685546875,-0.05590856075286865,-0.007717722095549107,-0.024623919278383255
1772469474000634400,1.74763427734375,-0.06495345383882523,-0.009890595450997353,-0.014711099676787853
1772469474010641700,1.7576416015625,-0.06781040132045746,-0.01093178242444992,-0.005381749011576176
1772469474020648400,1.7676484375,-0.07195055484771729,-0.01233899686485529,-0.004542586859315634
1772469474030655700,1.77765576171875,-0.06698717921972275,-0.022386938333511353,-0.0005873795598745346
1772469474040662500,1.78766259765625,-0.06821143627166748,-0.01713358610868454,0.0035074972547590733
1772469474050669300,1.79766943359375,-0.06306429207324982,-0.015398137271404266,0.016836583614349365
1772469474060676600,1.807676513671875,-0.06049354374408722,-0.024961283430457115,0.029954250901937485
1772469474070683400,1.817683349609375,-0.06492602080106735,-0.039792850613594055,0.03836268186569214
1772469474080690700,1.827690673828125,-0.07511953264474869,-0.03427291661500931,0.04156539961695671
1772469474090697500,1.837697509765625,-0.07904290407896042,-0.030159100890159607,0.05670724809169769
1772469474100704500,1.84770458984375,-0.08222698420286179,-0.04216036945581436,0.06564854085445404
1772469474110711600,1.857711669921875,-0.08061088621616364,-0.05649953335523605,0.05528825893998146
1772469474120718600,1.867718505859375,-0.08193714171648026,-0.05658022686839104,0.028048643842339516
1772469474130725600,1.8777255859375,-0.07656839489936829,-0.0380123071372509,0.0017884871922433376
1772469474140732400,1.887732421875,-0.0692305862903595,-0.01742740347981453,-0.007200480438768864
1772469474150739500,1.897739501953125,-0.06013113260269165,-0.010347085073590279,0.002469481900334358
1772469474160745700,1.907745849609375,-0.05136267468333244,-0.032637208700180054,0.029467543587088585
1772469474170753500,1.91775341796875,-0.04460654780268669,-0.060155801475048065,0.05968291312456131
1772469474180759600,1.927759521484375,-0.03949381411075592,-0.0750785619020462,0.0893007293343544
1772469474190766600,1.9377666015625,-0.0314498208463192,-0.0676867663860321,0.1073395311832428
1772469474200773400,1.9477734375,-0.02887774258852005,-0.061324477195739746,0.10414639860391617
1772469474210780700,1.95778076171875,-0.026436645537614822,-0.047868940979242325,0.07744018733501434
1772469474220787500,1.967787353515625,-0.02149488404393196,-0.012904299423098564,0.03205167502164841
1772469474230794500,1.97779443359375,-0.03104586713016033,0.01651260256767273,-0.041946154087781906
1772469474240801500,1.987801513671875,-0.05068774148821831,0.01374957337975502,-0.13728545606136322
1772469474250808600,1.99780859375,-0.038763221353292465,0.04366395249962807,-0.1663603037595749
1772469474260815600,2.007815673828125,-0.022870011627674103,0.06561985611915588,-0.18249613046646118
1772469474270822400,2.017822509765625,-0.027114685624837875,0.04903177171945572,-0.18460607528686523
1772469474280829400,2.027829345703125,-0.03983474522829056,0.005807069595903158,-0.14464746415615082
1772469474290836500,2.03783642578125,-0.04965110868215561,-0.014912158250808716,-0.09977731853723526
1772469474300843500,2.047843505859375,-0.05971386283636093,-0.018044300377368927,-0.07355929166078568
1772469474310850600,2.0578505859375,-0.06620945036411285,-0.04260022193193436,-0.07104207575321198
1772469474320857600,2.067857666015625,-0.08399244397878647,-0.05785240978002548,-0.06841886043548584
1772469474330864400,2.077864501953125,-0.10821730643510818,-0.04534924030303955,-0.08302189409732819
1772469474340871700,2.08787158203125,-0.12603865563869476,-0.03647745028138161,-0.0976082906126976
1772469474350878500,2.09787841796875,-0.145945742726326,-0.03631002455949783,-0.10712326318025589
1772469474360885500,2.107885498046875,-0.14853699505329132,-0.04807081073522568,-0.1134815588593483
1772469474370892500,2.117892578125,-0.1484944224357605,-0.05112585797905922,-0.10336098074913025
1772469474380899300,2.1278994140625,-0.13863086700439453,-0.04029771313071251,-0.07948467880487442
1772469474390906600,2.13790673828125,-0.13043469190597534,-0.01704949513077736,-0.05076242610812187
1772469474400913400,2.147913330078125,-0.121140256524086,0.010218345560133457,-0.04460147023200989
1772469474410920700,2.157920654296875,-0.10900387167930603,0.034742966294288635,-0.04573594406247139
1772469474420927500,2.167927490234375,-0.09609020501375198,0.030344491824507713,-0.04872614145278931
1772469474430934500,2.1779345703125,-0.0840851217508316,0.026058746501803398,-0.04674835875630379
1772469474440941600,2.187941650390625,-0.07557498663663864,0.04624444246292114,-0.04669003561139107
1772469474450948400,2.1979482421875,-0.07441376149654388,0.033060573041439056,-0.0602918341755867
1772469474460955600,2.20795556640625,-0.08875968307256699,0.02115863747894764,-0.07027975469827652
1772469474470962400,2.21796240234375,-0.09724734723567963,0.07960604876279831,-0.08487801998853683
1772469474480969500,2.227969482421875,-0.09963274002075195,0.13940361142158508,-0.12417615950107574
1772469474490976500,2.2379765625,-0.10433042794466019,0.1890568882226944,-0.16972340643405914
1772469474500983600,2.247983642578125,-0.08979249745607376,0.21757295727729797,-0.20604626834392548
1772469474510990600,2.257990478515625,-0.06661349534988403,0.2152782678604126,-0.22133700549602509
1772469474520997600,2.26799755859375,-0.061254147440195084,0.20111851394176483,-0.21921366453170776
1772469474531004400,2.27800439453125,-0.06386062502861023,0.18311643600463867,-0.19761593639850616
1772469474541011500,2.288011474609375,-0.06733311712741852,0.17508992552757263,-0.18130327761173248
1772469474551018500,2.2980185546875,-0.06613146513700485,0.17220114171504974,-0.18326357007026672
1772469474561025500,2.308025634765625,-0.059584882110357285,0.16474029421806335,-0.18836459517478943
1772469474571032600,2.318032470703125,-0.05573412403464317,0.15942762792110443,-0.19891537725925446
1772469474581039400,2.328039306640625,-0.051529791206121445,0.162074014544487,-0.20328296720981598
1772469474591046700,2.338046630859375,-0.041003160178661346,0.12371472269296646,-0.1733684539794922
1772469474601053400,2.348053466796875,-0.04127160832285881,0.1454852670431137,-0.11055245995521545
1772469474611060700,2.358060791015625,-0.013086708262562752,0.1303020566701889,-0.04837626591324806
1772469474621067500,2.368067626953125,0.03681027516722679,0.12461194396018982,-0.004264729097485542
1772469474631074300,2.37807421875,0.14519178867340088,0.11541464924812317,0.021408118307590485
1772469474641081600,2.38808154296875,0.23260952532291412,0.11423726379871368,0.020607836544513702
1772469474651088400,2.39808837890625,0.28189218044281006,0.15851189196109772,0.015193572267889977
1772469474661095700,2.408095703125,0.320823609828949,0.23010991513729095,0.011619077995419502
1772469474671102500,2.4181025390625,0.3478037714958191,0.35358190536499023,0.010739222168922424
1772469474681109500,2.428109619140625,0.31556832790374756,0.5774834156036377,0.0009726122952997684
1772469474691116500,2.438116455078125,0.2513172924518585,0.9028245210647583,-0.04765075817704201
1772469474701123600,2.44812353515625,0.20419000089168549,1.2038943767547607,-0.1623522937297821
1772469474711130600,2.458130615234375,0.1333143562078476,1.3578283786773682,-0.3077543377876282
1772469474721137400,2.468137451171875,0.04440126195549965,1.347022533416748,-0.37039613723754883
1772469474731144400,2.47814453125,-0.0012650269782170653,1.138695478439331,-0.3281429409980774
1772469474741151500,2.4881513671875,-0.018986323848366737,0.7806463837623596,-0.2462386190891266
1772469474751158500,2.498158447265625,-0.02848351001739502,0.41259875893592834,-0.14357157051563263
1772469474761165600,2.50816552734375,-0.04484730213880539,0.0864185094833374,-0.03203572705388069
1772469474771172600,2.518172607421875,-0.10830417275428772,-0.15310434997081757,0.06463558971881866
1772469474781179400,2.528179443359375,-0.22321078181266785,-0.28693485260009766,0.11219751834869385
1772469474791186700,2.538186767578125,-0.33700889348983765,-0.3356170058250427,0.0905165895819664
1772469474801193500,2.548193359375,-0.4116053581237793,-0.32922595739364624,-0.020777177065610886
1772469474811200500,2.558200439453125,-0.4545033574104309,-0.24998541176319122,-0.2292225956916809
1772469474821207600,2.56820751953125,-0.4600405991077423,-0.12774550914764404,-0.4664023816585541
1772469474831214300,2.57821435546875,-0.4164973795413971,-0.050354886800050735,-0.6941903233528137
1772469474841221600,2.5882216796875,-0.3158373534679413,0.011445362120866776,-0.8980110883712769
1772469474851228400,2.598228515625,-0.20219381153583527,0.07387851923704147,-1.073283076286316
1772469474861235700,2.608235595703125,-0.12133040279150009,0.04946798086166382,-1.2513177394866943
1772469474871242500,2.618242431640625,-0.0904819443821907,-0.045718926936388016,-1.3637324571609497
1772469474881249500,2.62824951171875,-0.07081423699855804,-0.19266045093536377,-1.3332206010818481
1772469474891256600,2.638256591796875,-0.03531092032790184,-0.48734357953071594,-1.2009038925170898
1772469474901263400,2.648263427734375,-0.007638279814273119,-0.8409964442253113,-1.0468820333480835
1772469474911270700,2.658270751953125,0.019977498799562454,-0.9824854135513306,-0.953930139541626
1772469474921277700,2.668277587890625,0.08655785769224167,-0.8317294716835022,-0.9874053001403809
1772469474931285000,2.678284912109375,0.13323064148426056,-0.5467159748077393,-1.2070766687393188
1772469474941291800,2.688291748046875,0.11788737773895264,-0.28839579224586487,-1.5538207292556763
1772469474951298800,2.698298828125,0.07004444301128387,-0.14921297132968903,-1.896511435508728
1772469474961305900,2.708305908203125,0.03686464577913284,-0.2335297167301178,-2.119562864303589
1772469474971312600,2.718312744140625,0.029277393594384193,-0.5406070947647095,-2.099385976791382
1772469474981320000,2.72831982421875,0.018392255529761314,-0.9367344379425049,-1.9103587865829468
1772469474991326700,2.73832666015625,-0.019333377480506897,-1.0254462957382202,-1.8376754522323608
1772469475001333800,2.748333740234375,-0.04456496238708496,-0.7399484515190125,-2.0343945026397705
1772469475011340800,2.7583408203125,0.002232365310192108,-0.17199231684207916,-2.2838194370269775
1772469475021347800,2.768347900390625,0.10443250089883804,0.4728873372077942,-2.360412359237671
1772469475031355000,2.77835498046875,0.2826285660266876,0.9376755952835083,-2.005640983581543
1772469475041362000,2.78836181640625,0.4954010248184204,0.9862649440765381,-1.2269152402877808
1772469475051368700,2.79836865234375,0.6892684102058411,0.6352642178535461,-0.2677175998687744
1772469475061375700,2.808375732421875,0.842218816280365,0.30145618319511414,0.6409981846809387
1772469475071382800,2.8183828125,0.9625149369239807,0.2204446792602539,1.3609141111373901
1772469475081389800,2.828389892578125,1.0134721994400024,0.24894556403160095,1.8085036277770996
1772469475091396900,2.83839697265625,1.0833908319473267,0.2567310333251953,2.1162259578704834
1772469475101405000,2.848405029296875,1.2044779062271118,0.3272312879562378,2.349179267883301
1772469475111411700,2.85841162109375,1.3176448345184326,0.6095635890960693,2.5203733444213867
1772469475121418800,2.868418701171875,1.374982476234436,0.8961671590805054,2.5949347019195557
1772469475131425800,2.87842578125,1.4392662048339844,0.8611119389533997,2.676682472229004
1772469475141432800,2.888432861328125,1.494971513748169,0.5598421096801758,2.921388626098633
1772469475151440000,2.89843994140625,1.402044415473938,0.13505816459655762,3.1648952960968018
1772469475161447000,2.908447021484375,1.1522736549377441,-0.3670424818992615,3.3566977977752686
1772469475171453700,2.91845361328125,0.7702931761741638,-0.5865777134895325,3.4647910594940186
1772469475181460700,2.928460693359375,0.3863716125488281,-0.07717572152614594,3.533385753631592
1772469475191467800,2.9384677734375,0.23128752410411835,0.6752574443817139,3.6872527599334717
1772469475201474800,2.948474853515625,0.3016114830970764,0.9733229279518127,3.8790316581726074
1772469475211481900,2.95848193359375,0.4031669497489929,0.9526335000991821,3.9405500888824463
1772469475221488600,2.968488525390625,0.37153658270835876,0.7848053574562073,3.742729902267456
1772469475231496000,2.978495849609375,0.139549121260643,0.5424399375915527,3.3147754669189453
1772469475241502700,2.988502685546875,-0.17604106664657593,0.34900230169296265,2.8342742919921875
1772469475251510000,2.998510009765625,-0.4170738160610199,0.3008127510547638,2.4762320518493652
1772469475261516800,3.008516845703125,-0.5308848023414612,0.31648385524749756,2.2473552227020264
1772469475271523800,3.01852392578125,-0.5465723276138306,0.2611628472805023,2.106579303741455
1772469475281531000,3.02853076171875,-0.5466974973678589,0.06728951632976532,2.097609758377075
1772469475291537700,3.03853759765625,-0.6122623085975647,-0.2049713283777237,2.1006405353546143
1772469475301545000,3.048544921875,-0.7024156451225281,-0.3485817611217499,2.0156497955322266
1772469475311551700,3.0585517578125,-0.7791209816932678,-0.3754047453403473,1.7837449312210083
1772469475321558800,3.068558837890625,-0.8113875985145569,-0.3334791362285614,1.3954219818115234
1772469475331565800,3.07856591796875,-0.7604966163635254,-0.27722951769828796,0.9150734543800354
1772469475341572900,3.08857275390625,-0.6582101583480835,-0.19203178584575653,0.33302682638168335
1772469475351580000,3.098579833984375,-0.5585893988609314,-0.11738153547048569,-0.287382036447525
1772469475361586700,3.108586669921875,-0.5227770805358887,-0.08691204339265823,-0.8569304347038269
1772469475371593700,3.11859375,-0.5464720726013184,-0.11941767483949661,-1.32866370677948
1772469475381600800,3.128600830078125,-0.6059279441833496,-0.16664643585681915,-1.6638022661209106
1772469475391607800,3.13860791015625,-0.637595534324646,-0.1784779280424118,-1.9234387874603271
1772469475401614800,3.14861474609375,-0.6326945424079895,-0.1996023952960968,-2.1411008834838867
1772469475411622000,3.158621826171875,-0.6241766214370728,-0.26361557841300964,-2.3353729248046875
1772469475421628700,3.168628662109375,-0.6282011866569519,-0.3498564660549164,-2.48144268989563
1772469475431636000,3.178635986328125,-0.6325802206993103,-0.4181568920612335,-2.5637240409851074
1772469475441642800,3.188642822265625,-0.5974200963973999,-0.44374188780784607,-2.6115612983703613
1772469475451649800,3.19864990234375,-0.49103206396102905,-0.5348378419876099,-2.6122348308563232
1772469475461656800,3.20865673828125,-0.3524685800075531,-0.7633418440818787,-2.657010078430176
1772469475471663600,3.21866357421875,-0.3011404275894165,-1.0556623935699463,-2.8671302795410156
1772469475481671000,3.2286708984375,-0.3943806290626526,-1.3182679414749146,-3.197910785675049
1772469475491677700,3.238677734375,-0.6022458076477051,-1.4660106897354126,-3.4594202041625977
1772469475501685000,3.24868505859375,-0.8770448565483093,-1.6115186214447021,-3.6628339290618896
1772469475511691800,3.25869189453125,-1.0397456884384155,-1.7880868911743164,-3.8670156002044678
1772469475521698800,3.26869873046875,-0.9191449284553528,-2.1131436824798584,-4.096602439880371
1772469475531705900,3.278705810546875,-0.5441434979438782,-2.3372645378112793,-4.551473140716553
1772469475541712600,3.288712646484375,-0.04755902662873268,-2.089566946029663,-5.322041988372803
1772469475551720000,3.298719970703125,0.31580135226249695,-1.5641148090362549,-6.6263580322265625
1772469475561726700,3.308726806640625,0.3121509552001953,-0.9718517065048218,-8.217413902282715
1772469475571733800,3.318733642578125,0.06248465180397034,-0.33094522356987,-9.156472206115723
1772469475581740800,3.32874072265625,-0.08038701117038727,0.3093985319137573,-8.72877311706543
1772469475591747800,3.338747802734375,0.1009102463722229,0.313173770904541,-6.9337239265441895
1772469475601755000,3.3487548828125,0.5591090321540833,-0.23774133622646332,-4.118369102478027
1772469475611762000,3.358761962890625,0.9305546879768372,-0.8629092574119568,-1.2695209980010986
1772469475621768700,3.368768798828125,1.1183875799179077,-0.968024492263794,1.09607994556427
1772469475631775700,3.378775634765625,1.2309131622314453,-0.5893526077270508,2.784574031829834
1772469475641782800,3.38878271484375,1.3621574640274048,-0.07639530301094055,3.8712687492370605
1772469475651789800,3.398789794921875,1.3923026323318481,0.31425565481185913,4.564800262451172
1772469475661796900,3.408796875,1.1772300004959106,0.4970015287399292,4.963934898376465
1772469475671803600,3.4188037109375,0.8308846950531006,0.5201844573020935,5.218039512634277
1772469475681811000,3.42881103515625,0.5168090462684631,0.5826270580291748,5.443606376647949
1772469475691817700,3.438817626953125,0.26739931106567383,0.650562584400177,5.551945209503174
1772469475701825000,3.448824951171875,0.04119041562080383,0.6603981256484985,5.524492263793945
1772469475711831800,3.458831787109375,-0.1453794687986374,0.5217941999435425,5.425530433654785
1772469475721838600,3.468838623046875,-0.19733907282352448,0.39789965748786926,5.346858501434326
1772469475731846000,3.478845947265625,-0.1600492149591446,0.34032773971557617,5.284667491912842
1772469475741852700,3.488852783203125,-0.06592165678739548,0.47897934913635254,5.1991190910339355
1772469475751860000,3.49885986328125,0.06625795364379883,0.6663566827774048,5.031974792480469
1772469475761866800,3.50886669921875,0.2431056946516037,0.781625509262085,4.759077548980713
1772469475771873800,3.518873779296875,0.4045456647872925,0.8088023066520691,4.355497360229492
1772469475781880800,3.528880859375,0.46924450993537903,0.7422052025794983,3.8617634773254395
1772469475791888000,3.538887939453125,0.43157750368118286,0.5946398377418518,3.4259634017944336
1772469475801895000,3.54889501953125,0.40791770815849304,0.4527446925640106,3.0419578552246094
1772469475811901700,3.558901611328125,0.5055195689201355,0.5555892586708069,2.6257708072662354
1772469475821908700,3.56890869140625,0.6325840353965759,0.7304772138595581,2.1631250381469727
1772469475831915800,3.578915771484375,0.7005376815795898,0.8596290349960327,1.6653516292572021
1772469475841923800,3.588923828125,0.648611843585968,0.8973026275634766,1.1422936916351318
1772469475851931000,3.598930908203125,0.47655951976776123,0.7302786111831665,0.6686738133430481
1772469475861937700,3.608937744140625,0.20239800214767456,0.4339372217655182,0.2937672734260559
1772469475871945000,3.618945068359375,-0.03065008483827114,0.3694552481174469,0.018163597211241722
1772469475881951700,3.62895166015625,-0.12420187145471573,0.5416867136955261,-0.2714967131614685
1772469475891958800,3.638958740234375,-0.13166914880275726,0.657127320766449,-0.6164953708648682
1772469475901965800,3.6489658203125,-0.11474636942148209,0.6489250659942627,-0.9273017048835754
1772469475911972900,3.658972900390625,-0.1423029899597168,0.5323906540870667,-1.254336953163147
1772469475921980200,3.668980224609375,-0.243120938539505,0.31375205516815186,-1.5908411741256714
1772469475931987200,3.6789873046875,-0.3207992613315582,-0.0398847796022892,-1.9340437650680542
1772469475941994200,3.688994140625,-0.3089894652366638,-0.35572636127471924,-2.26127290725708
1772469475952001300,3.699001220703125,-0.24262119829654694,-0.49317240715026855,-2.572178363800049
1772469475962008300,3.70900830078125,-0.12432332336902618,-0.4633156955242157,-2.8947322368621826
1772469475972015000,3.71901513671875,-0.007038234733045101,-0.5516599416732788,-3.2475035190582275
1772469475982022400,3.7290224609375,0.016924088820815086,-0.7882053852081299,-3.6114697456359863
1772469475992029200,3.739029296875,-0.022169917821884155,-1.071362853050232,-3.8686203956604004
1772469476002036200,3.7490361328125,-0.018560269847512245,-1.3630319833755493,-4.122329235076904
1772469476012043300,3.759043212890625,0.03252120316028595,-1.421482801437378,-4.55281400680542
1772469476022050000,3.769050048828125,0.15978674590587616,-1.1205155849456787,-5.2007975578308105
1772469476032057300,3.779057373046875,0.2192893922328949,-0.5585973858833313,-5.996333599090576
1772469476042064100,3.789064208984375,0.19012165069580078,-0.06478236615657806,-6.4992995262146
1772469476052071400,3.799071533203125,-0.06801175326108932,-0.12584015727043152,-6.509955406188965
1772469476062078200,3.809078125,-0.3926582634449005,-0.7850047945976257,-6.132131576538086
1772469476072085200,3.819085205078125,-0.549705445766449,-1.5971744060516357,-5.611000061035156
1772469476082092300,3.82909228515625,-0.2987900972366333,-1.9144045114517212,-4.900056838989258
1772469476092099000,3.83909912109375,0.20931337773799896,-1.6313002109527588,-4.073836803436279
1772469476102106400,3.8491064453125,0.7652187347412109,-0.8780444264411926,-2.92990779876709
1772469476112113200,3.859113037109375,1.1198519468307495,-0.3671143352985382,-1.466284990310669
1772469476122120200,3.8691201171875,1.1743152141571045,-0.29923516511917114,0.1924918293952942
1772469476132127200,3.879127197265625,1.055582880973816,-0.3436908423900604,1.7483354806900024
1772469476142134300,3.88913427734375,0.9112496972084045,-0.28194838762283325,2.942861557006836
1772469476152141300,3.899141357421875,0.7407894730567932,-0.11842270940542221,3.6677324771881104
1772469476162148400,3.9091484375,0.4997102916240692,0.18676675856113434,3.97379994392395
1772469476172155100,3.919155029296875,0.23376762866973877,0.548902153968811,4.110459804534912
1772469476182162200,3.929162109375,-0.019225746393203735,0.861965537071228,4.254327297210693
1772469476192169200,3.939169189453125,-0.22021523118019104,1.0116115808486938,4.390626907348633
1772469476202176300,3.94917626953125,-0.3901408612728119,0.998673677444458,4.477917194366455
1772469476212183300,3.959183349609375,-0.50630122423172,0.9051275849342346,4.505553722381592
1772469476222190000,3.969190185546875,-0.5242306590080261,0.7444031238555908,4.513931751251221
1772469476232197400,3.979197265625,-0.43580228090286255,0.6064370274543762,4.527621746063232
1772469476242204200,3.9892041015625,-0.29019632935523987,0.5122798681259155,4.511231422424316
1772469476252212200,3.999212158203125,-0.060715001076459885,0.4917840361595154,4.50501823425293
1772469476262219300,4.00921923828125,0.15818537771701813,0.5235406160354614,4.463040828704834
1772469476272226300,4.019226318359375,0.2571578025817871,0.5712285041809082,4.333131790161133
1772469476282233300,4.0292333984375,0.2416345179080963,0.5565328598022461,4.141148567199707
1772469476292240100,4.039240234375,0.15830528736114502,0.5302162766456604,3.9084930419921875
1772469476302247200,4.0492470703125,0.15626344084739685,0.4847768545150757,3.6344311237335205
1772469476312254200,4.059254150390625,0.23928095400333405,0.5339599251747131,3.368786096572876
1772469476322261200,4.06926123046875,0.36292460560798645,0.5280916094779968,3.138122797012329
1772469476332268300,4.079268310546875,0.4183005094528198,0.3914530873298645,2.902587413787842
1772469476342275000,4.089275146484375,0.3864499032497406,0.31918448209762573,2.5666418075561523
1772469476352282400,4.099282470703125,0.33218416571617126,0.35251569747924805,2.04670786857605
1772469476362289200,4.1092890625,0.24980993568897247,0.5094664692878723,1.3925049304962158
1772469476372296400,4.11929638671875,0.16337260603904724,0.6308401226997375,0.7617207765579224
1772469476382303200,4.12930322265625,0.06426945328712463,0.6742909550666809,0.2790774405002594
1772469476392310000,4.13931005859375,-0.047962725162506104,0.6935344934463501,-0.07276038825511932
1772469476402317300,4.1493173828125,-0.14894872903823853,0.6879119873046875,-0.3489094078540802
1772469476412324000,4.159323974609375,-0.24970456957817078,0.5462437272071838,-0.5578374266624451
1772469476422331400,4.169331298828125,-0.35585445165634155,0.29986080527305603,-0.70293790102005
1772469476432338200,4.179338134765625,-0.43042171001434326,0.04190564155578613,-0.8650810122489929
1772469476442345200,4.18934521484375,-0.4558658301830292,-0.12000682950019836,-1.1254314184188843
1772469476452352300,4.199352294921875,-0.4246925115585327,-0.12887586653232574,-1.48102867603302
1772469476462359300,4.209359375,-0.32536086440086365,-0.07367146760225296,-1.8855066299438477
1772469476472366300,4.219366455078125,-0.1811084747314453,-0.011984109878540039,-2.191053628921509
1772469476482373000,4.229373046875,-0.03601786866784096,-0.026989690959453583,-2.3860318660736084
1772469476492380200,4.239380126953125,0.005163524299860001,-0.24934181571006775,-2.5750558376312256
1772469476502387200,4.24938720703125,-0.0637630820274353,-0.6032852530479431,-2.8371169567108154
1772469476512394200,4.259394287109375,-0.21383970975875854,-0.9610875248908997,-3.238956928253174
1772469476522401300,4.2694013671875,-0.304178923368454,-1.18461012840271,-3.658735513687134
1772469476532408300,4.279408203125,-0.2899682819843292,-1.2707045078277588,-4.0111284255981445
1772469476542415000,4.2894150390625,-0.1283908486366272,-1.2823797464370728,-4.250856399536133
1772469476552422400,4.29942236328125,0.2673267126083374,-1.0210912227630615,-4.288041114807129
1772469476562429200,4.30942919921875,0.7713767886161804,-0.5891163945198059,-4.297303676605225
1772469476572436200,4.319436279296875,1.0545134544372559,-0.6004291772842407,-4.5358500480651855
1772469476582443300,4.329443359375,0.9805388450622559,-1.254770278930664,-5.03761100769043
1772469476592450000,4.339449951171875,0.5888755321502686,-2.1422858238220215,-5.613348484039307
1772469476602458000,4.3494580078125,0.2545556128025055,-2.545365571975708,-5.943763256072998
1772469476612465200,4.359465087890625,0.25512930750846863,-2.172703981399536,-5.709104061126709
1772469476622472200,4.36947216796875,0.46112269163131714,-1.1822253465652466,-4.916095733642578
1772469476632479200,4.379479248046875,0.6908378601074219,-0.30416005849838257,-3.8706724643707275
1772469476642486300,4.389486328125,0.8601632714271545,0.12290124595165253,-2.6952242851257324
1772469476652493300,4.399493408203125,0.9182345867156982,0.13012348115444183,-1.550126314163208
1772469476662500000,4.4095,0.9124723076820374,-0.012983879074454308,-0.4147224426269531
1772469476672507400,4.41950732421875,0.8858651518821716,-0.062234241515398026,0.6683799028396606
1772469476682514200,4.42951416015625,0.8675788044929504,0.05333762988448143,1.6885818243026733
1772469476692521200,4.439521240234375,0.8053538203239441,0.2881178855895996,2.636754035949707
1772469476702528300,4.4495283203125,0.685453474521637,0.47710487246513367,3.453087568283081
1772469476712535000,4.45953515625,0.5103438496589661,0.7000995874404907,3.99582839012146
1772469476722542300,4.469542236328125,0.29479533433914185,0.8374771475791931,4.213982105255127
1772469476732549000,4.479549072265625,0.06516476720571518,0.828768253326416,4.23506498336792
1772469476742556400,4.489556396484375,-0.12782013416290283,0.6245860457420349,4.1472063064575195
1772469476752563200,4.499563232421875,-0.1897123157978058,0.5183201432228088,4.092436790466309
1772469476762570200,4.5095703125,-0.11018925160169601,0.6245909333229065,4.143398761749268
1772469476772577300,4.519577392578125,0.0637546256184578,0.8028864860534668,4.255444049835205
1772469476782584000,4.529583984375,0.17894992232322693,0.9163702130317688,4.334376335144043
1772469476792591400,4.53959130859375,0.1150655671954155,0.9256189465522766,4.326969146728516
1772469476802598100,4.54959814453125,-0.10902932286262512,0.6772914528846741,4.2656073570251465
1772469476812605200,4.559605224609375,-0.31765925884246826,0.38671934604644775,4.178476333618164
1772469476822612200,4.5696123046875,-0.3974592983722687,0.36360496282577515,4.024616241455078
1772469476832619300,4.579619384765625,-0.34207355976104736,0.49280935525894165,3.7442705631256104
1772469476842626300,4.589626220703125,-0.20694425702095032,0.6464287042617798,3.355609893798828
1772469476852633300,4.59963330078125,-0.06508693844079971,0.7288801074028015,2.9085609912872314
1772469476862640000,4.60964013671875,0.039796069264411926,0.7409413456916809,2.519752264022827
1772469476872647200,4.619647216796875,0.085282102227211,0.6081080436706543,2.21077823638916
1772469476882655200,4.6296552734375,0.10627367347478867,0.32830676436424255,1.9243018627166748
1772469476892662300,4.639662353515625,0.08798814564943314,0.12695185840129852,1.5969171524047852
1772469476902669300,4.64966943359375,0.040918368846178055,0.14937540888786316,1.0988690853118896
1772469476912676400,4.65967626953125,-0.06974516063928604,0.3424657881259918,0.472357839345932
1772469476922683100,4.66968310546875,-0.2497847080230713,0.4977741539478302,-0.23499026894569397
1772469476932690400,4.6796904296875,-0.47275128960609436,0.49328210949897766,-0.8983229398727417
1772469476942697200,4.689697265625,-0.6315305829048157,0.4352036118507385,-1.338679552078247
1772469476952704300,4.699704345703125,-0.7354377508163452,0.39939889311790466,-1.602681040763855
1772469476962711300,4.709711181640625,-0.7629058361053467,0.3204004764556885,-1.8065942525863647
1772469476972718300,4.71971826171875,-0.6931694149971008,0.1372799426317215,-1.9997003078460693
1772469476982725400,4.729725341796875,-0.5719947814941406,-0.15548083186149597,-2.2912909984588623
1772469476992732200,4.739732177734375,-0.48278313875198364,-0.38074737787246704,-2.5813822746276855
1772469477002739200,4.7497392578125,-0.4601196348667145,-0.4688146412372589,-2.7718141078948975
1772469477012746200,4.759746337890625,-0.4648246169090271,-0.4940176010131836,-2.9167613983154297
1772469477022753300,4.769753173828125,-0.4978712499141693,-0.6101625561714172,-3.190265655517578
1772469477032760300,4.77976025390625,-0.5456386804580688,-0.8127166628837585,-3.548611879348755
1772469477042767400,4.789767333984375,-0.625053346157074,-0.966015100479126,-3.780751943588257
1772469477052774100,4.799774169921875,-0.6832669973373413,-1.1340688467025757,-3.815472364425659
1772469477062781400,4.809781494140625,-0.7064018845558167,-1.409898281097412,-3.74837064743042
1772469477072788200,4.819788330078125,-0.6038428544998169,-1.6106369495391846,-3.804793119430542
1772469477082795300,4.829795166015625,-0.35732898116111755,-1.6481857299804688,-4.015085220336914
1772469477092802300,4.83980224609375,-0.11112669855356216,-1.8679531812667847,-4.345400333404541
1772469477102809000,4.84980908203125,0.10544954985380173,-2.4192678928375244,-4.760475158691406
1772469477112816400,4.85981640625,0.12170344591140747,-3.1081583499908447,-5.171043872833252
1772469477122823200,4.8698232421875,-0.02909431792795658,-3.4528603553771973,-5.29759407043457
1772469477132830500,4.87983056640625,-0.11782476305961609,-2.8318634033203125,-4.9372687339782715
1772469477142838300,4.88983837890625,0.0833621397614479,-1.3959590196609497,-3.9687552452087402
1772469477152845300,4.89984521484375,0.43053582310676575,-0.19609497487545013,-2.44930100440979
1772469477162852400,4.909852294921875,0.6422888040542603,0.25581708550453186,-0.5369701385498047
1772469477172859100,4.919859130859375,0.5853825807571411,0.23947395384311676,1.3134151697158813
1772469477182866400,4.929866455078125,0.3830510079860687,0.09204348921775818,2.809652090072632
1772469477192873200,4.939873291015625,0.09210165590047836,0.011477489024400711,3.77652907371521
1772469477202880300,4.94988037109375,-0.20973674952983856,0.15145109593868256,4.221763610839844
1772469477212887300,4.95988720703125,-0.4320858418941498,0.5651471614837646,4.258184909820557
1772469477222894000,4.96989404296875,-0.5284852981567383,0.9421119689941406,4.118609428405762
1772469477232901400,4.9799013671875,-0.5694196820259094,1.1227325201034546,4.048177242279053
1772469477242908200,4.989908203125,-0.5983991622924805,1.1448146104812622,4.129302978515625
1772469477252915500,4.99991552734375,-0.5915055871009827,1.0772361755371094,4.305424690246582
1772469477262922200,5.009922119140625,-0.5811280608177185,0.8913486003875732,4.446857929229736
1772469477272929300,5.01992919921875,-0.5505114793777466,0.6763381958007812,4.495512962341309
1772469477282936300,5.029936279296875,-0.4872600734233856,0.4525674283504486,4.462461471557617
1772469477292943400,5.039943359375,-0.3991536498069763,0.34377995133399963,4.314387321472168
1772469477302950400,5.049950439453125,-0.27650806307792664,0.5085402131080627,4.096062660217285
1772469477312957200,5.059957275390625,-0.12438545376062393,0.6854773759841919,3.880000114440918
1772469477322964200,5.069964111328125,0.07195742428302765,0.7036228179931641,3.7489495277404785
1772469477332971300,5.07997119140625,0.21789167821407318,0.6189509034156799,3.6773180961608887
1772469477342978300,5.089978271484375,0.2879703640937805,0.519336998462677,3.572542428970337
1772469477352985300,5.0999853515625,0.29181331396102905,0.4078565239906311,3.390594005584717
1772469477362992400,5.109992431640625,0.2860688865184784,0.34439340233802795,3.1555049419403076
1772469477372999200,5.119999267578125,0.2510167062282562,0.36490488052368164,2.8788857460021973
1772469477383007200,5.13000732421875,0.16708797216415405,0.45448189973831177,2.5338220596313477
1772469477393014300,5.14001416015625,0.13732115924358368,0.6178154349327087,2.0796961784362793
1772469477403021300,5.150021240234375,0.1443854570388794,0.6432552933692932,1.582432508468628
1772469477413028400,5.1600283203125,0.10572634637355804,0.5800421833992004,1.108048677444458
1772469477423035400,5.170035400390625,0.01559086237102747,0.49803468585014343,0.7163435816764832
1772469477433042200,5.180042236328125,-0.1020343080163002,0.47298580408096313,0.4074505865573883
1772469477443049200,5.19004931640625,-0.24245107173919678,0.3986913561820984,0.08582036197185516
1772469477453056300,5.20005615234375,-0.3818681240081787,0.287637323141098,-0.3077371120452881
1772469477463063300,5.210063232421875,-0.46955323219299316,0.1720428317785263,-0.6963319778442383
1772469477473070300,5.2200703125,-0.5012754201889038,0.03715922310948372,-1.0551685094833374
1772469477483077400,5.230077392578125,-0.5198962688446045,-0.09996268153190613,-1.4190601110458374
1772469477493084200,5.240084228515625,-0.520067572593689,-0.20634566247463226,-1.7260804176330566
1772469477503091500,5.250091552734375,-0.49376380443573,-0.3107388913631439,-2.037896156311035
1772469477513098200,5.26009814453125,-0.46411800384521484,-0.4268765151500702,-2.3837220668792725
1772469477523105300,5.270105224609375,-0.40228205919265747,-0.4931817650794983,-2.6191537380218506
1772469477533112300,5.2801123046875,-0.28959813714027405,-0.5498498678207397,-2.7124006748199463
1772469477543119000,5.290119140625,-0.15311270952224731,-0.6901635527610779,-2.6975998878479004
1772469477553126400,5.30012646484375,-0.048423320055007935,-0.8694912195205688,-2.6724302768707275
1772469477563133200,5.31013330078125,-0.01138434186577797,-1.1106828451156616,-2.739441394805908
1772469477573140500,5.320140380859375,0.006215468980371952,-1.3910772800445557,-2.923015594482422
1772469477583147300,5.330147216796875,0.062286995351314545,-1.6546542644500732,-3.2145791053771973
1772469477593154300,5.340154296875,0.2839393615722656,-1.7747911214828491,-3.522408962249756
1772469477603161300,5.350161376953125,0.6021056175231934,-1.4619061946868896,-3.9294986724853516
1772469477613168000,5.360168212890625,0.9035902619361877,-0.9104521870613098,-4.2854180335998535
1772469477623176400,5.370176513671875,1.0160247087478638,-0.539540708065033,-4.632685661315918
1772469477633183200,5.380183349609375,0.6243453621864319,-0.6642779111862183,-5.219574928283691
1772469477643190300,5.390190185546875,-0.04871826618909836,-1.1987383365631104,-5.649153709411621
1772469477653197300,5.400197265625,-0.4263971745967865,-1.4981766939163208,-5.340674877166748
1772469477663204000,5.4102041015625,-0.39336755871772766,-1.0174044370651245,-4.263229846954346
1772469477673211400,5.42021142578125,0.005759535823017359,-0.29597771167755127,-2.6869096755981445
1772469477683218200,5.43021826171875,0.39379942417144775,0.23300649225711823,-0.8822370767593384
1772469477693225500,5.4402255859375,0.558029294013977,0.5290912985801697,0.7065711617469788
1772469477703232300,5.450232177734375,0.5402249693870544,0.5843893885612488,1.9052698612213135
1772469477713239300,5.4602392578125,0.4475787580013275,0.5982323884963989,2.677018165588379
1772469477723246300,5.470246337890625,0.3696986138820648,0.5435433387756348,3.095587730407715
1772469477733253000,5.480253173828125,0.3332138657569885,0.44999998807907104,3.2307651042938232
1772469477743260400,5.490260498046875,0.21903909742832184,0.4546794295310974,3.190972089767456
1772469477753267200,5.50026708984375,-0.0019302518339827657,0.4812243580818176,3.1215622425079346
1772469477763274200,5.510274169921875,-0.198319211602211,0.5872373580932617,3.1345832347869873
1772469477773281300,5.52028125,-0.32828089594841003,0.7669442296028137,3.1678199768066406
1772469477783288300,5.530288330078125,-0.36504608392715454,0.8387119174003601,3.1656529903411865
1772469477793295400,5.54029541015625,-0.3801950216293335,0.7496159076690674,3.083493947982788
1772469477803302400,5.550302490234375,-0.3922625780105591,0.6724236011505127,2.9126789569854736
1772469477813310500,5.560310546875,-0.38553744554519653,0.6908079385757446,2.712282657623291
1772469477823317200,5.570317138671875,-0.30686473846435547,0.7800885438919067,2.521606683731079
1772469477833324300,5.58032421875,-0.1950966864824295,0.8786930441856384,2.37819504737854
1772469477843331300,5.590331298828125,-0.0370122529566288,0.8592492938041687,2.3114936351776123
1772469477853338400,5.60033837890625,0.09436947107315063,0.7630921006202698,2.278069496154785
1772469477863345400,5.610345458984375,0.16959339380264282,0.6745830178260803,2.2198092937469482
1772469477873352200,5.620352294921875,0.1773807406425476,0.6079422831535339,2.159885883331299
1772469477883359200,5.630359130859375,0.14594559371471405,0.5884953141212463,2.1151933670043945
1772469477893366300,5.6403662109375,0.07859601825475693,0.6391993761062622,2.0587689876556396
1772469477903373300,5.650373291015625,-0.004082354251295328,0.6734553575515747,1.9518076181411743
1772469477913380400,5.66038037109375,-0.12507304549217224,0.6814708113670349,1.7823448181152344
1772469477923387600,5.6703876953125,-0.17898660898208618,0.7124378085136414,1.5816633701324463
1772469477933394700,5.680394775390625,-0.07986006885766983,0.7348494529724121,1.403731107711792
1772469477943401500,5.6904013671875,0.05649084597826004,0.7557704448699951,1.1375055313110352
1772469477953408800,5.70040869140625,0.13855482637882233,0.8557292819023132,0.8463323712348938
1772469477963415600,5.71041552734375,0.07723899930715561,0.8909168243408203,0.5503201484680176
1772469477973422600,5.720422607421875,-0.08593189716339111,0.6876776218414307,0.21895480155944824
1772469477983429600,5.7304296875,-0.2679309844970703,0.44154536724090576,-0.08785653114318848
1772469477993436700,5.740436767578125,-0.4108024835586548,0.30748969316482544,-0.36355188488960266
1772469478003443700,5.750443603515625,-0.5239964127540588,0.24736565351486206,-0.6514723300933838
1772469478013451500,5.760451416015625,-0.5964144468307495,0.14692826569080353,-0.9733341336250305
1772469478023458800,5.770458740234375,-0.5983920693397522,0.022220153361558914,-1.3134567737579346
1772469478033465600,5.780465576171875,-0.5504696369171143,-0.0822640061378479,-1.6320664882659912
1772469478043472600,5.79047265625,-0.45043042302131653,-0.2298867553472519,-1.8920836448669434
1772469478053479700,5.800479736328125,-0.31851497292518616,-0.454130083322525,-2.1327731609344482
1772469478063486500,5.810486572265625,-0.174366295337677,-0.771269679069519,-2.3944740295410156
1772469478073493800,5.82049365234375,-0.06477189064025879,-1.065018653869629,-2.6804566383361816
1772469478083500500,5.83050048828125,-0.03174762427806854,-1.2867285013198853,-2.958928346633911
1772469478093507600,5.840507568359375,-0.09786681085824966,-1.4108725786209106,-3.2590951919555664
1772469478103514600,5.8505146484375,-0.16628316044807434,-1.4539201259613037,-3.5789289474487305
1772469478113521700,5.860521728515625,-0.24835756421089172,-1.5355937480926514,-3.924891710281372
1772469478123528700,5.87052880859375,-0.30970001220703125,-1.638377070426941,-4.227269649505615
1772469478133535700,5.88053564453125,-0.17047764360904694,-1.8607871532440186,-4.649269104003906
1772469478143542500,5.89054248046875,0.1190899983048439,-2.005662441253662,-5.4745869636535645
1772469478153549600,5.900549560546875,0.27761515974998474,-1.7000808715820312,-6.602718353271484
1772469478163556600,5.910556640625,0.18363380432128906,-1.092210292816162,-7.411924839019775
1772469478173563600,5.920563720703125,-0.013793038204312325,-0.929036021232605,-7.412415504455566
1772469478183570700,5.93057080078125,-0.1345016062259674,-1.0634180307388306,-6.308380126953125
1772469478193578800,5.940578857421875,-0.3414015769958496,-1.2818236351013184,-4.60837459564209
1772469478203585500,5.95058544921875,-0.3522382378578186,-1.1087039709091187,-2.9641294479370117
1772469478213592600,5.960592529296875,-0.081212118268013,-0.6174052357673645,-1.50480318069458
1772469478223599600,5.970599609375,0.43088260293006897,-0.10494142025709152,-0.14556217193603516
1772469478233606700,5.980606689453125,0.9160555005073547,0.14100375771522522,1.1618989706039429
1772469478243613700,5.99061376953125,1.1463301181793213,0.23786506056785583,2.4433908462524414
1772469478253620700,6.000620849609375,1.1163058280944824,0.26973292231559753,3.593385934829712
1772469478263627500,6.01062744140625,0.8492287993431091,0.32293567061424255,4.337791919708252
1772469478273634600,6.020634521484375,0.5232585072517395,0.34060895442962646,4.5874714851379395
1772469478283641600,6.0306416015625,0.2905896306037903,0.44736525416374207,4.481362819671631
1772469478293648600,6.040648681640625,0.20242717862129211,0.6167960166931152,4.265073776245117
1772469478303655700,6.05065576171875,0.19992248713970184,0.8559076189994812,4.116304874420166
1772469478313662500,6.060662353515625,0.20730668306350708,1.045865774154663,4.085864543914795
1772469478323669800,6.070669677734375,0.1939418762922287,1.0397285223007202,4.1929497718811035
1772469478333676500,6.080676513671875,0.19622482359409332,0.8659405708312988,4.450528144836426
1772469478343683800,6.090683837890625,0.12111382186412811,0.5585691332817078,4.7320404052734375
1772469478353690600,6.100690673828125,-0.022062908858060837,0.2339378148317337,4.9147491455078125
1772469478363698700,6.11069873046875,-0.10719351470470428,0.1632753610610962,4.974282264709473
1772469478373705700,6.120705810546875,-0.08141997456550598,0.42339885234832764,4.873199462890625
1772469478383712500,6.13071240234375,0.042100097984075546,0.8258455991744995,4.547454833984375
1772469478393719600,6.140719482421875,0.12604710459709167,0.9512170553207397,4.0709123611450195
1772469478403726600,6.1507265625,0.1383059024810791,0.8398524522781372,3.587170124053955
1772469478413733600,6.160733642578125,0.12518726289272308,0.6637936234474182,3.185225248336792
1772469478423740700,6.17074072265625,0.11884627491235733,0.585444986820221,2.882619857788086
1772469478433747500,6.18074755859375,0.14934603869915009,0.6991544365882874,2.647228479385376
1772469478443754800,6.190754638671875,0.18328030407428741,0.8219807744026184,2.3649728298187256
1772469478453761500,6.200761474609375,0.21037214994430542,0.6945734620094299,2.091489791870117
1772469478463768800,6.210768798828125,0.17134138941764832,0.39099064469337463,1.7849947214126587
1772469478473775600,6.220775634765625,0.05064817890524864,0.09729981422424316,1.4197026491165161
1772469478483782700,6.23078271484375,-0.17011535167694092,-0.08132478594779968,0.9631439447402954
1772469478493789700,6.240789794921875,-0.3909308612346649,-0.10888282209634781,0.40956225991249084
1772469478503796500,6.25079638671875,-0.5472552180290222,-0.022796671837568283,-0.18557409942150116
1772469478513803800,6.2608037109375,-0.6435913443565369,0.11421195417642593,-0.7927331328392029
1772469478523810600,6.270810546875,-0.6836870908737183,0.17117004096508026,-1.3324520587921143
1772469478533818600,6.280818603515625,-0.665532112121582,0.1623585969209671,-1.7214694023132324
1772469478543825700,6.29082568359375,-0.6265612840652466,0.07231792062520981,-1.99237060546875
1772469478553832400,6.30083251953125,-0.5853980183601379,-0.06728751957416534,-2.2537190914154053
1772469478563839700,6.31083984375,-0.5113088488578796,-0.2585538625717163,-2.513946533203125
1772469478573846500,6.320846435546875,-0.45570218563079834,-0.4213263988494873,-2.7593109607696533
1772469478583853800,6.330853759765625,-0.40592238306999207,-0.5558279752731323,-2.908125400543213
1772469478593860600,6.340860595703125,-0.3266109526157379,-0.6976873278617859,-2.8775055408477783
1772469478603867600,6.35086767578125,-0.22700738906860352,-0.8220217823982239,-2.7670443058013916
1772469478613874700,6.360874755859375,-0.18075065314769745,-0.9672331213951111,-2.728257894515991
1772469478623881500,6.370881591796875,-0.20498141646385193,-1.2365576028823853,-2.835810899734497
1772469478633888800,6.380888671875,-0.23852118849754333,-1.5053260326385498,-3.0790717601776123
1772469478643895600,6.3908955078125,-0.2638116180896759,-1.653398871421814,-3.44907808303833
1772469478653902600,6.400902587890625,-0.20482109487056732,-1.6568645238876343,-4.045125961303711
1772469478663909600,6.41090966796875,-0.05625426024198532,-1.4769775867462158,-4.956580638885498
1772469478673916700,6.420916748046875,0.08203241974115372,-0.871277928352356,-5.8387274742126465
1772469478683923700,6.430923828125,0.2239173948764801,-0.1797543317079544,-6.135759353637695
1772469478693930800,6.4409306640625,0.2975735366344452,0.08553052693605423,-5.66814661026001
1772469478703938800,6.450938720703125,0.1624239683151245,-0.2586686611175537,-4.995345115661621
1772469478713945600,6.460945556640625,-0.04225393012166023,-0.5493527054786682,-4.289124011993408
1772469478723952600,6.47095263671875,-0.025530876591801643,-0.2068057507276535,-3.112133502960205
1772469478733959700,6.480959716796875,0.25935661792755127,0.32644122838974,-1.5711075067520142
1772469478743966500,6.490966552734375,0.5900951027870178,0.5373407006263733,0.14885005354881287
1772469478753973800,6.500973876953125,0.7802638411521912,0.37724873423576355,1.8020890951156616
1772469478763980500,6.51098046875,0.7997512817382812,0.1483021080493927,2.9884235858917236
1772469478773987600,6.520987548828125,0.6318256855010986,-0.05706542357802391,3.5910096168518066
1772469478783994600,6.53099462890625,0.4065762758255005,-0.10046403110027313,3.7003538608551025
1772469478794001700,6.541001708984375,0.24712860584259033,0.10100588947534561,3.5152740478515625
1772469478804008700,6.5510087890625,0.14779429137706757,0.4251083433628082,3.3041648864746094
1772469478814015700,6.561015625,0.09237676113843918,0.6827093958854675,3.232046604156494
1772469478824022500,6.5710224609375,0.005255708005279303,0.7543617486953735,3.250096559524536
1772469478834029600,6.581029541015625,-0.17166611552238464,0.8020700216293335,3.2955591678619385
1772469478844036600,6.59103662109375,-0.36323609948158264,0.8287079930305481,3.334882974624634
1772469478854044700,6.601044677734375,-0.483411967754364,0.7419142127037048,3.3249783515930176
1772469478864051500,6.611051513671875,-0.4947969913482666,0.6234993934631348,3.2250516414642334
1772469478874058800,6.621058837890625,-0.38271328806877136,0.5504927039146423,3.019002676010132
1772469478884065500,6.6310654296875,-0.18803009390830994,0.5807819366455078,2.748927116394043
1772469478894072600,6.641072509765625,-0.020979225635528564,0.6315429210662842,2.4601967334747314
1772469478904079600,6.65107958984375,0.12985661625862122,0.7132825255393982,2.1977109909057617
1772469478914086700,6.661086669921875,0.2378191351890564,0.7117510437965393,1.9775304794311523
1772469478924092700,6.6710927734375,0.2944469749927521,0.5900543928146362,1.7987931966781616
1772469478934099700,6.681099609375,0.29690220952033997,0.4556978642940521,1.652083158493042
1772469478944106800,6.691106689453125,0.2527582049369812,0.34727975726127625,1.530757188796997
1772469478954113800,6.70111376953125,0.1901254653930664,0.18969003856182098,1.4073195457458496
1772469478964120800,6.711120849609375,0.13283421099185944,0.07079003006219864,1.2487092018127441
1772469478974127900,6.7211279296875,0.11551479250192642,0.09477515518665314,1.0517795085906982
1772469478984134700,6.731134765625,0.10793117433786392,0.22589457035064697,0.7791759371757507
1772469478994141700,6.7411416015625,0.10308883339166641,0.3276362121105194,0.45887672901153564
1772469479004149800,6.751149658203125,0.038315702229738235,0.35228320956230164,0.1294839084148407
1772469479014156800,6.76115673828125,-0.07962837815284729,0.3248571753501892,-0.19898967444896698
1772469479024163800,6.771163818359375,-0.2235884666442871,0.24358415603637695,-0.5518808960914612
1772469479034171000,6.7811708984375,-0.3317975103855133,0.14686429500579834,-0.8788615465164185
1772469479044177700,6.791177734375,-0.3862048089504242,0.09088383615016937,-1.160467267036438
1772469479054184700,6.801184814453125,-0.38584059476852417,0.08660298585891724,-1.3705984354019165
1772469479064191700,6.811191650390625,-0.33256351947784424,0.03451847657561302,-1.527693271636963
1772469479074198800,6.82119873046875,-0.25391271710395813,-0.06831956654787064,-1.6965115070343018
1772469479084205800,6.831205810546875,-0.1693054437637329,-0.17782342433929443,-1.9018346071243286
1772469479094212900,6.841212890625,-0.0673324316740036,-0.2730458974838257,-2.0837531089782715
1772469479104219600,6.8512197265625,0.032411474734544754,-0.3677785396575928,-2.2446043491363525
1772469479114227000,6.86122705078125,0.12530173361301422,-0.45995160937309265,-2.357408285140991
1772469479124233700,6.871233642578125,0.20868690311908722,-0.5641661286354065,-2.4234702587127686
1772469479134240800,6.88124072265625,0.17609736323356628,-0.7521474957466125,-2.5221030712127686
1772469479144247800,6.891247802734375,0.04197976738214493,-0.933976411819458,-2.696056604385376
1772469479154254600,6.901254638671875,-0.0897873118519783,-1.0516273975372314,-2.896879196166992
1772469479164262700,6.9112626953125,-0.1536635011434555,-1.2009295225143433,-3.1793410778045654
1772469479174269700,6.921269775390625,-0.14840970933437347,-1.47440505027771,-3.596095561981201
1772469479184276700,6.93127685546875,-0.043054256588220596,-1.6707737445831299,-4.058917045593262
1772469479194283800,6.94128369140625,0.10027299076318741,-1.681740164756775,-4.5660858154296875
1772469479204290800,6.951290771484375,0.2362406700849533,-1.536757230758667,-5.168833255767822
1772469479214297900,6.9612978515625,0.36175501346588135,-1.4791088104248047,-5.82772970199585
1772469479224304600,6.9713046875,0.2495531141757965,-1.4714058637619019,-6.508683681488037
1772469479234312000,6.98131201171875,-0.137266144156456,-0.9817587733268738,-6.744694232940674
1772469479244318700,6.991318603515625,-0.49578994512557983,-0.22820217907428741,-6.26915979385376
1772469479254325800,7.00132568359375,-0.5257759690284729,0.01471725944429636,-5.278486251831055
1772469479264332800,7.011332763671875,-0.2020748406648636,-0.09047147631645203,-3.5741167068481445
1772469479274339600,7.021339599609375,0.21343126893043518,-0.21187780797481537,-1.5135477781295776
1772469479284347000,7.031346923828125,0.5352393984794617,-0.266131192445755,0.45910727977752686
1772469479294353700,7.041353759765625,0.7279803156852722,-0.23521722853183746,2.055657148361206
1772469479304361700,7.05136181640625,0.7764682769775391,-0.21145090460777283,3.125321626663208
1772469479314368800,7.06136865234375,0.6766248345375061,-0.07423010468482971,3.8408918380737305
1772469479324375800,7.071375732421875,0.5166162848472595,0.0013099275529384613,4.37101411819458
1772469479334382800,7.0813828125,0.31568485498428345,0.07101638615131378,4.738210678100586
1772469479344389600,7.0913896484375,0.10911650210618973,0.1940280646085739,4.882514476776123
1772469479354397000,7.10139697265625,-0.05314648151397705,0.3301231563091278,4.848690986633301
1772469479364403700,7.11140380859375,-0.1315230429172516,0.42500171065330505,4.738354682922363
1772469479374410800,7.12141064453125,-0.26318061351776123,0.39674440026283264,4.590778350830078
1772469479384417800,7.131417724609375,-0.4535215497016907,0.37126195430755615,4.468239784240723
1772469479394424600,7.141424560546875,-0.6415665149688721,0.43073755502700806,4.421833038330078
1772469479404432000,7.151431884765625,-0.7487571835517883,0.5760705471038818,4.424994945526123
1772469479414438700,7.161438720703125,-0.7576196789741516,0.7601890563964844,4.395859241485596
1772469479424446000,7.171446044921875,-0.7277758121490479,0.8588487505912781,4.2763352394104
1772469479434452700,7.18145263671875,-0.6838877201080322,0.904238760471344,4.040982246398926
1772469479444460800,7.191460693359375,-0.6395378708839417,0.9087479710578918,3.7709996700286865
1772469479454467800,7.2014677734375,-0.5963864922523499,0.8632345795631409,3.510551929473877
1772469479464474600,7.211474609375,-0.5670357942581177,0.7722199559211731,3.286831855773926
1772469479474482000,7.22148193359375,-0.5334784388542175,0.5557850003242493,3.107635259628296
1772469479484488700,7.23148876953125,-0.5792717337608337,0.3425312638282776,2.8936245441436768
1772469479494495700,7.241495849609375,-0.6366071105003357,0.19445478916168213,2.5654029846191406
1772469479504502800,7.251502685546875,-0.7362722158432007,0.10191341489553452,2.1093804836273193
1772469479514509600,7.261509521484375,-0.8248457908630371,0.16549435257911682,1.5394612550735474
1772469479524516900,7.271516845703125,-0.8894921541213989,0.33735769987106323,0.9206768274307251
1772469479534523600,7.281523681640625,-0.9282811284065247,0.4639442563056946,0.34249213337898254
1772469479544531000,7.291531005859375,-0.8969365358352661,0.403393030166626,-0.15467500686645508
1772469479554537700,7.301537841796875,-0.8179840445518494,0.23561279475688934,-0.5659849047660828
1772469479564544800,7.311544677734375,-0.7076157331466675,0.05880286917090416,-0.9153202772140503
1772469479574551800,7.3215517578125,-0.5296006202697754,-0.06587932258844376,-1.1994495391845703
1772469479584559600,7.3315595703125,-0.31926870346069336,-0.20131465792655945,-1.4790180921554565
1772469479594567000,7.34156689453125,-0.10500692576169968,-0.31336548924446106,-1.7987170219421387
1772469479604573700,7.35157373046875,0.04455806314945221,-0.3607388436794281,-2.1555113792419434
1772469479614581000,7.3615810546875,0.1629934161901474,-0.3729710578918457,-2.5074844360351562
1772469479624587800,7.371587890625,0.2543978691101074,-0.39286595582962036,-2.775517225265503
1772469479634594600,7.381594482421875,0.3232308328151703,-0.4480769634246826,-2.920480489730835
1772469479644601900,7.391601806640625,0.3433230519294739,-0.5542382597923279,-2.935455560684204
1772469479654608600,7.401608642578125,0.2966872453689575,-0.8103773593902588,-2.859182596206665
1772469479664616000,7.411615966796875,0.11138609051704407,-1.1583526134490967,-2.855910301208496
1772469479674622700,7.421622802734375,-0.16480731964111328,-1.434351921081543,-3.0127198696136475
1772469479684629800,7.431629638671875,-0.38705238699913025,-1.6566236019134521,-3.21494722366333
1772469479694636800,7.44163671875,-0.5090692043304443,-1.9004091024398804,-3.389970541000366
1772469479704643800,7.451643798828125,-0.5680534243583679,-2.0407588481903076,-3.6446080207824707
1772469479714651000,7.46165087890625,-0.5438045263290405,-1.9096301794052124,-4.113239288330078
1772469479724658700,7.47165869140625,-0.4420280456542969,-1.3739715814590454,-4.873359680175781
1772469479734666000,7.481666015625,-0.43143102526664734,-0.5427391529083252,-6.008173942565918
1772469479744672800,7.4916728515625,-0.540132999420166,0.19924680888652802,-7.138132095336914
1772469479754679600,7.501679443359375,-0.47136974334716797,0.7260330319404602,-7.56990909576416
1772469479764686800,7.511686767578125,-0.12734632194042206,0.8540067076683044,-6.927088737487793
1772469479774693600,7.521693603515625,0.16856971383094788,0.4373514950275421,-5.283444881439209
1772469479784701000,7.531700927734375,0.3922973573207855,-0.18347075581550598,-2.921583890914917
1772469479794707700,7.541707763671875,0.5240862369537354,-0.85001540184021,-0.49155154824256897
1772469479804714800,7.55171484375,0.5534563660621643,-1.0266722440719604,1.4995882511138916
1772469479814721800,7.5617216796875,0.5137327909469604,-0.7612401843070984,2.6960830688476562
1772469479824728800,7.571728759765625,0.441606342792511,-0.40172648429870605,3.3855621814727783
1772469479834735900,7.58173583984375,0.33926185965538025,0.013118389993906021,3.8049323558807373
1772469479844742700,7.59174267578125,0.19505010545253754,0.4931342601776123,3.9845452308654785
1772469479854751000,7.6017509765625,-0.007048673462122679,0.8774496912956238,3.9591360092163086
1772469479864757800,7.6117578125,-0.14890678226947784,1.1184011697769165,4.010365009307861
1772469479874764800,7.621764892578125,-0.2335451990365982,1.1845589876174927,4.171360015869141
1772469479884771800,7.631771728515625,-0.27619120478630066,1.1145485639572144,4.444421291351318
1772469479894778600,7.641778564453125,-0.23543089628219604,0.9993221163749695,4.767491817474365
1772469479904786000,7.651785888671875,-0.12267957627773285,0.8670735955238342,5.061356544494629
1772469479914792700,7.661792724609375,-0.07096724957227707,0.6667239665985107,5.2617692947387695
1772469479924800000,7.671800048828125,-0.04588240012526512,0.4075115919113159,5.418842315673828
1772469479934806800,7.681806884765625,0.03734586760401726,0.25912725925445557,5.4788665771484375
1772469479944814000,7.69181396484375,0.1720767766237259,0.21987919509410858,5.4139204025268555
1772469479954820900,7.70182080078125,0.28940466046333313,0.27811524271965027,5.2007246017456055
1772469479964827600,7.71182763671875,0.36963531374931335,0.420173317193985,4.8155717849731445
1772469479974835000,7.7218349609375,0.4442899227142334,0.6325589418411255,4.297913551330566
1772469479984842800,7.7318427734375,0.5150341391563416,0.8645541071891785,3.701874017715454
1772469479994850000,7.74185009765625,0.5747681260108948,0.974484920501709,3.1244330406188965
1772469480004856800,7.75185693359375,0.5863333940505981,0.919951856136322,2.6365959644317627
1772469480014864000,7.76186376953125,0.513323962688446,0.802858829498291,2.171315908432007
1772469480024871000,7.771870849609375,0.43858712911605835,0.6638447642326355,1.846757173538208
1772469480034877700,7.781877685546875,0.35643622279167175,0.40085431933403015,1.6068888902664185
1772469480044885000,7.791885009765625,0.2169414609670639,-0.0008742241188883781,1.3784682750701904
1772469480054891800,7.801891845703125,0.11709778010845184,-0.19845856726169586,1.0674666166305542
1772469480064899000,7.811899169921875,0.04643478989601135,-0.320672869682312,0.5338839292526245
1772469480074905900,7.82190576171875,-0.0069891964085400105,-0.5032399296760559,-0.17081208527088165
1772469480084913000,7.831912841796875,0.01011628657579422,-0.31671133637428284,-0.9574598073959351
1772469480094920000,7.841919921875,0.15115782618522644,1.1892136335372925,-1.9786279201507568
1772469480104927700,7.851927734375,0.11561901122331619,1.841846227645874,-2.8315682411193848
1772469480114935000,7.86193505859375,-0.01746438443660736,0.8083603382110596,-2.725473165512085
1772469480124941800,7.87194189453125,-0.2541152536869049,-0.19052934646606445,-2.2218880653381348
1772469480134948900,7.881948974609375,-0.24958878755569458,-0.22826752066612244,-1.9974627494812012
1772469480144956000,7.891955810546875,-0.25950348377227783,-0.6257253885269165,-2.1205015182495117
1772469480154962700,7.901962646484375,-0.3456564247608185,-1.1602234840393066,-2.302616596221924
1772469480164970000,7.911969970703125,-0.4398564100265503,-1.4413880109786987,-2.450014352798462
1772469480174976800,7.921976806640625,-0.46912074089050293,-1.346279263496399,-2.6325223445892334
1772469480184984000,7.931984130859375,-0.35687491297721863,-1.0601364374160767,-2.893355131149292
1772469480194990800,7.941990966796875,-0.13039085268974304,-0.8399254083633423,-3.2115371227264404
1772469480204998000,7.951997802734375,0.09447449445724487,-0.6985320448875427,-3.557922601699829
1772469480215005000,7.9620048828125,0.26293474435806274,-0.459089070558548,-3.8592889308929443
1772469480225011700,7.97201171875,0.3381626307964325,-0.12136589735746384,-4.118135929107666
1772469480235020000,7.98202001953125,0.3429943323135376,0.14246590435504913,-4.239400386810303
1772469480245026800,7.99202685546875,0.2827778458595276,0.269547700881958,-4.319894313812256
1772469480255033900,8.002033935546875,0.21052084863185883,0.1285484880208969,-4.660344123840332
1772469480265041000,8.012041015625,0.1564789116382599,0.11118361353874207,-5.423778057098389
1772469480275047700,8.022047607421875,0.14375771582126617,0.6630235910415649,-6.1272807121276855
1772469480285055000,8.032054931640625,0.011974107474088669,1.0936558246612549,-6.307315826416016
1772469480295061800,8.042061767578126,-0.1807323545217514,0.8328647613525391,-5.5344977378845215
1772469480305069000,8.052069091796875,-0.28498074412345886,0.47511354088783264,-4.15357780456543
1772469480315075800,8.062075927734375,-0.27888768911361694,0.342009037733078,-2.6707448959350586
1772469480325083000,8.072082763671874,-0.25030186772346497,0.21040786802768707,-1.0966142416000366
1772469480335090000,8.08208984375,-0.1300058811903,-0.08214794099330902,0.4501912295818329
1772469480345096700,8.0920966796875,0.03063465654850006,-0.36865079402923584,1.8341418504714966
1772469480355105000,8.10210498046875,0.09332621842622757,-0.5320513248443604,2.948305368423462
1772469480365111800,8.11211181640625,0.09138317406177521,-0.6819924116134644,3.7469277381896973
1772469480375118800,8.122118896484375,0.03881584480404854,-0.8507840633392334,4.093001365661621
1772469480385126000,8.1321259765625,-0.05430584400892258,-0.856120228767395,4.003720760345459
1772469480395132700,8.142132568359376,-0.11813244968652725,-0.6307490468025208,3.6899664402008057
1772469480405140000,8.152139892578125,-0.1739075630903244,-0.27727988362312317,3.462486505508423
1772469480415146800,8.162146728515625,-0.1621244102716446,-0.08269494026899338,3.437976121902466
1772469480425154000,8.172154052734374,-0.13880658149719238,-0.017020586878061295,3.585888624191284
1772469480435160800,8.182160888671875,-0.1648404747247696,0.0073615191504359245,3.7749557495117188
1772469480445167900,8.19216796875,-0.20006237924098969,-0.10134445875883102,3.9475972652435303
1772469480455175000,8.2021748046875,-0.260878324508667,-0.1678406298160553,4.033161640167236
1772469480465182000,8.212181884765625,-0.33701571822166443,-0.10790033638477325,3.9672060012817383
1772469480475190000,8.22218994140625,-0.3713207244873047,-0.00008991314098238945,3.8069112300872803
1772469480485196800,8.23219677734375,-0.2927281856536865,0.09142828732728958,3.6232502460479736
1772469480495204000,8.2422041015625,-0.1651500165462494,0.186100035905838,3.3754587173461914
1772469480505211000,8.2522109375,-0.05819374695420265,0.2194041907787323,3.1376683712005615
1772469480515217700,8.2622177734375,0.014710105955600739,0.18954439461231232,2.901348114013672
1772469480525225000,8.272224853515626,0.06435701996088028,0.2124987095594406,2.627124071121216
1772469480535231700,8.282231689453125,0.13754615187644958,0.3310101628303528,2.354342222213745
1772469480545239000,8.292239013671875,0.15527695417404175,0.2726845443248749,2.113462209701538
1772469480555245800,8.302245849609376,0.2117844671010971,0.21032492816448212,1.9067004919052124
1772469480565252900,8.3122529296875,0.3031362295150757,0.2038627713918686,1.6944756507873535
1772469480575260000,8.322260009765625,0.2748357355594635,0.21395163238048553,1.4545342922210693
1772469480585267000,8.332266845703124,0.245993971824646,0.017431922256946564,1.2178024053573608
1772469480595275000,8.34227490234375,0.2211739420890808,-0.17467910051345825,0.8545182347297668
1772469480605281800,8.35228173828125,0.16342568397521973,-0.27307093143463135,0.3738917112350464
1772469480615289000,8.3622890625,0.10575182735919952,-0.37118619680404663,-0.1365792453289032
1772469480625296000,8.3722958984375,0.0073911636136472225,-0.4552121162414551,-0.5821402072906494
1772469480635302700,8.382302734375,-0.09643949568271637,-0.4192248582839966,-0.9995971918106079
1772469480645310000,8.39231005859375,-0.17418354749679565,-0.41567379236221313,-1.3966524600982666
1772469480655316700,8.402316650390626,-0.1790744513273239,-0.43039655685424805,-1.7524136304855347
1772469480665324000,8.412323974609375,-0.14763690531253815,-0.45600470900535583,-2.0975630283355713
1772469480675330800,8.422330810546875,-0.12554492056369781,-0.3739420473575592,-2.3945152759552
1772469480685337900,8.432337890625,0.029054781422019005,-0.34776821732521057,-2.6658856868743896
1772469480695345000,8.442344970703125,0.19091179966926575,-0.36611947417259216,-2.9393601417541504
1772469480705352000,8.45235205078125,0.32025834918022156,-0.4737921357154846,-3.0898947715759277
1772469480715360000,8.462360107421874,0.4058656096458435,-0.5877782702445984,-3.1164324283599854
1772469480725366800,8.47236669921875,0.4394930899143219,-0.6594111919403076,-3.0850679874420166
1772469480735374000,8.4823740234375,0.4552558362483978,-0.653301477432251,-3.0537991523742676
1772469480745380900,8.492380859375,0.4114793539047241,-0.585375964641571,-3.0883290767669678
1772469480755388000,8.502387939453126,0.30931177735328674,-0.4453050196170807,-3.1914265155792236
1772469480765395000,8.51239501953125,0.16932272911071777,-0.5281026363372803,-3.3505799770355225
1772469480775401700,8.522401611328124,0.10668974369764328,-0.9077544808387756,-3.727306604385376
1772469480785409000,8.532408935546876,0.10134638100862503,-1.0356413125991821,-4.4805474281311035
1772469480795415800,8.542415771484375,0.20025001466274261,-0.784758448600769,-5.444140434265137
1772469480805422800,8.5524228515625,0.3701951205730438,-0.14811328053474426,-6.258121967315674
1772469480815430000,8.562429931640626,0.45458537340164185,0.8518894910812378,-6.666236400604248
1772469480825437700,8.572437744140625,0.33715197443962097,2.17399001121521,-7.0022077560424805
1772469480835445000,8.582445068359375,0.05558128282427788,2.4687588214874268,-6.801590919494629
1772469480845451800,8.59245166015625,-0.10280568897724152,1.668214201927185,-5.871035575866699
1772469480855459000,8.602458984375,-0.010079261846840382,0.6160382032394409,-4.0276713371276855
1772469480865465900,8.6124658203125,0.06599606573581696,-0.17810659110546112,-1.68802011013031
1772469480875473000,8.622472900390624,0.10644029080867767,-0.6264356374740601,0.5946236252784729
1772469480885480000,8.63247998046875,0.17921197414398193,-0.5747189521789551,2.3708298206329346
1772469480895486700,8.64248681640625,0.17610424757003784,-0.24494484066963196,3.415182590484619
1772469480905494000,8.652493896484375,0.06059335544705391,0.015325630083680153,3.8311853408813477
1772469480915500800,8.662500732421876,-0.05161458998918533,0.1338912397623062,3.847761392593384
1772469480925507800,8.6725078125,-0.1289607733488083,0.30050551891326904,3.6784496307373047
1772469480935515000,8.682514892578125,-0.21285606920719147,0.5127317905426025,3.6082394123077393
1772469480945522700,8.692522705078124,-0.30877965688705444,0.7143868803977966,3.7537262439727783
1772469480955530000,8.702530029296875,-0.36553776264190674,0.8757742047309875,3.9736008644104004
1772469480965536800,8.712536865234375,-0.4094111919403076,0.8641449213027954,4.208915710449219
1772469480975544000,8.7225439453125,-0.5029829144477844,0.7229354381561279,4.477774620056152
1772469480985550800,8.73255078125,-0.5996417999267578,0.502295732498169,4.725458145141602
1772469480995558000,8.742557861328125,-0.6618639230728149,0.3022735118865967,4.910182476043701
1772469481005565000,8.75256494140625,-0.6889488101005554,0.20649346709251404,5.013799667358398
1772469481015571700,8.76257177734375,-0.6345223784446716,0.14851707220077515,4.999233722686768
1772469481025579000,8.7725791015625,-0.5122329592704773,-0.05994878709316254,4.846843242645264
1772469481035585800,8.782585693359374,-0.31218451261520386,-0.1428503394126892,4.512330532073975
1772469481045592800,8.7925927734375,-0.11149536073207855,-0.047944601625204086,4.064161777496338
1772469481055599900,8.802599853515625,0.004223332740366459,0.09289329499006271,3.5688037872314453
1772469481065607700,8.812607666015625,0.06466563791036606,0.0998137891292572,3.113100528717041
1772469481075615000,8.822614990234374,0.12383952736854553,0.010657472535967827,2.753523588180542
1772469481085621800,8.832621826171875,0.18984542787075043,-0.009541272185742855,2.4041037559509277
1772469481095629000,8.842629150390625,0.2448490709066391,-0.059733159840106964,2.1240289211273193
1772469481105635800,8.8526357421875,0.3339954912662506,-0.059624239802360535,1.9252614974975586
1772469481115643000,8.862642822265625,0.4390729069709778,-0.06267524510622025,1.7015856504440308
1772469481125650000,8.87264990234375,0.5297091007232666,-0.09813443571329117,1.3750501871109009
1772469481135657000,8.882656982421874,0.5722306370735168,-0.17091765999794006,0.9251290559768677
1772469481145664000,8.8926640625,0.5034643411636353,-0.26066163182258606,0.300401508808136
1772469481155670800,8.9026708984375,0.3261151909828186,-0.2844317853450775,-0.3796287178993225
1772469481165677800,8.912677734375,0.14383192360401154,-0.1416085958480835,-0.9511572122573853
1772469481175686000,8.922685791015626,-0.016214609146118164,-0.01219414547085762,-1.362196683883667
1772469481185692700,8.932692626953125,-0.11954153329133987,0.047287553548812866,-1.6130270957946777
1772469481195700000,8.942699951171875,-0.13643057644367218,0.11618398129940033,-1.7537577152252197
1772469481205706800,8.952706787109374,-0.10474136471748352,0.15258271992206573,-1.8093101978302002
1772469481215714000,8.962714111328125,-0.07660200446844101,0.07246872037649155,-1.8523613214492798
1772469481225720800,8.972720947265625,-0.05965178459882736,-0.011766526848077774,-1.9499009847640991
1772469481235728000,8.982727783203124,-0.08560508489608765,-0.09901115298271179,-2.0954697132110596
1772469481245735000,8.99273486328125,-0.14620693027973175,-0.21262718737125397,-2.27409291267395
1772469481255742000,9.002741943359375,-0.18140621483325958,-0.22839514911174774,-2.4607620239257812
1772469481265749000,9.0127490234375,-0.1860893964767456,-0.18708312511444092,-2.5719356536865234
1772469481275755800,9.022755859375,-0.14879471063613892,-0.1177118644118309,-2.5441529750823975
1772469481285764000,9.03276416015625,-0.10373189300298691,-0.11473923921585083,-2.446990728378296
1772469481295771000,9.04277099609375,-0.09983547031879425,-0.19721218943595886,-2.4108269214630127
1772469481305777700,9.052777587890626,-0.13795968890190125,-0.4191965162754059,-2.6012213230133057
1772469481315785000,9.062784912109375,-0.2513127028942108,-0.681517481803894,-2.952082872390747
1772469481325791700,9.072791748046875,-0.359755277633667,-0.9663172364234924,-3.3690662384033203
1772469481335799000,9.082799072265624,-0.43511849641799927,-0.9614008069038391,-3.843451738357544
1772469481345805800,9.092805908203125,-0.42070865631103516,-0.594038724899292,-4.30942440032959
1772469481355812900,9.102812744140625,-0.3278994858264923,-0.32229721546173096,-4.82461404800415
1772469481365820000,9.11281982421875,-0.17049334943294525,-0.26214680075645447,-5.444323539733887
1772469481375827000,9.122826904296875,-0.022417467087507248,-0.3298393189907074,-6.065207004547119
1772469481385834000,9.132833984375,0.11916336417198181,-0.07483071088790894,-6.288382053375244
1772469481395841800,9.142841796875,0.28614142537117004,0.463440477848053,-5.595271110534668
1772469481405849000,9.15284912109375,0.4239658713340759,0.7730473279953003,-4.035857200622559
1772469481415855900,9.16285595703125,0.4540026783943176,0.6463481783866882,-2.1396727561950684
1772469481425863000,9.17286279296875,0.40184706449508667,0.20268337428569794,-0.4119894504547119
1772469481435870000,9.182869873046876,0.3538605570793152,-0.2578708529472351,1.0158332586288452
1772469481445876700,9.192876708984375,0.2861158549785614,-0.4696888327598572,2.111746311187744
1772469481455884000,9.202884033203125,0.21043100953102112,-0.578855037689209,2.8058295249938965
1772469481465890800,9.212890869140624,0.10028772801160812,-0.45569026470184326,3.0592284202575684
1772469481475897900,9.22289794921875,-0.055676043033599854,-0.1941167116165161,3.0633203983306885
1772469481485905000,9.23290478515625,-0.18191812932491302,0.0749453753232956,3.0903091430664062
1772469481495912000,9.242911865234374,-0.3026348650455475,0.2055405080318451,3.260629177093506
1772469481505920000,9.252919921875,-0.4520927965641022,0.18321256339550018,3.4968886375427246
1772469481515926800,9.2629267578125,-0.555396318435669,0.10553506016731262,3.687248945236206
1772469481525934000,9.27293408203125,-0.6031712889671326,0.05876782909035683,3.685231924057007
1772469481535940900,9.28294091796875,-0.5888577103614807,0.044927649199962616,3.5283498764038086
1772469481545948000,9.292947998046875,-0.5232898592948914,0.017170585691928864,3.2818803787231445
1772469481555955000,9.302954833984375,-0.4552348852157593,-0.07331625372171402,3.0193958282470703
1772469481565961700,9.312961669921876,-0.37948843836784363,-0.14281728863716125,2.800863265991211
1772469481575969000,9.322968994140625,-0.2893831133842468,-0.10915512591600418,2.611104726791382
1772469481585975800,9.332975830078125,-0.19233140349388123,0.020971717312932014,2.5064525604248047
1772469481595982800,9.34298291015625,-0.10587529838085175,0.12452438473701477,2.504272699356079
1772469481605990000,9.352989990234375,-0.04818430542945862,0.13708092272281647,2.598015785217285
1772469481615997700,9.362997802734375,-0.03953084722161293,0.10738898068666458,2.689767599105835
1772469481626005000,9.3730048828125,-0.037216562777757645,0.05708000808954239,2.6480507850646973
1772469481636011800,9.38301171875,-0.03147411718964577,-0.028057513758540154,2.4527993202209473
1772469481646019000,9.39301904296875,-0.012748101726174355,-0.04279171675443649,2.2657034397125244
1772469481656025900,9.40302587890625,-0.01444453839212656,-0.020341023802757263,2.1024727821350098
1772469481666033000,9.413032958984376,-0.04081356152892113,-0.057490259408950806,1.8716143369674683
1772469481676040000,9.4230400390625,-0.06506630033254623,-0.12927629053592682,1.5342156887054443
1772469481686046700,9.433046630859375,-0.07803057134151459,-0.1539379507303238,1.1449121236801147
1772469481696054000,9.443053955078126,-0.09900970757007599,-0.09636582434177399,0.7594696879386902
1772469481706060800,9.453060791015625,-0.09775056689977646,-0.003520044032484293,0.3740956485271454
1772469481716068900,9.46306884765625,-0.10447491705417633,0.042717766016721725,-0.07425248622894287
1772469481726076000,9.473075927734374,-0.12245950847864151,0.034338660538196564,-0.5440303087234497
1772469481736082700,9.483082763671876,-0.16493338346481323,-0.04296988993883133,-1.0073091983795166
1772469481746090000,9.493090087890625,-0.22469444572925568,-0.1343405544757843,-1.4038387537002563
1772469481756096800,9.5030966796875,-0.2718050181865692,-0.31396403908729553,-1.7275429964065552
1772469481766104000,9.51310400390625,-0.2677713930606842,-0.38503873348236084,-1.9871578216552734
1772469481776110800,9.52311083984375,-0.2383541613817215,-0.2670115828514099,-2.139918088912964
1772469481786118000,9.533117919921875,-0.16039864718914032,-0.06726253777742386,-2.2219202518463135
1772469481796125000,9.543125,-0.06162572279572487,0.06775440275669098,-2.2420856952667236
1772469481806131700,9.553131591796875,0.019702425226569176,0.08127420395612717,-2.218592643737793
1772469481816139000,9.563138916015625,0.05310183763504028,0.06181520223617554,-2.223149299621582
1772469481826146800,9.573146728515624,0.05440571904182434,-0.08479927480220795,-2.2405295372009277
1772469481836154000,9.583154052734375,0.034437160938978195,-0.28872859477996826,-2.3289458751678467
1772469481846161000,9.593160888671875,0.015587840229272842,-0.40578094124794006,-2.550041913986206
1772469481856167700,9.603167724609374,0.03657994419336319,-0.2674345076084137,-2.861891269683838
1772469481866175000,9.613175048828126,0.08095858991146088,0.006504097953438759,-3.2147648334503174
1772469481876181800,9.623181640625,0.14895512163639069,0.1811719387769699,-3.593069553375244
1772469481886189000,9.63318896484375,0.19616152346134186,0.22114652395248413,-4.035335063934326
1772469481896195800,9.64319580078125,0.1929740607738495,0.2257102131843567,-4.2632155418396
1772469481906203000,9.653202880859375,0.16659227013587952,0.12803106009960175,-3.9506943225860596
1772469481916210000,9.6632099609375,0.10528510063886642,0.016216114163398743,-3.1296300888061523
1772469481926218500,9.673218505859374,0.020617354661226273,-0.04182881489396095,-2.0888848304748535
1772469481936225500,9.6832255859375,0.043333761394023895,-0.2165900617837906,-1.285971999168396
1772469481946232600,9.693232666015625,0.14981812238693237,-0.3583027124404907,-0.7396060228347778
1772469481956239400,9.7032392578125,0.25302255153656006,-0.34868550300598145,-0.325283944606781
1772469481966246700,9.71324658203125,0.277422159910202,-0.28166601061820984,0.1636551171541214
1772469481976253400,9.72325341796875,0.2951006293296814,-0.2845115661621094,0.8244919776916504
1772469481986260700,9.7332607421875,0.25683099031448364,-0.2503160536289215,1.4517407417297363
1772469481996267500,9.743267578125,0.19697102904319763,-0.19525131583213806,1.942471981048584
1772469482006274600,9.753274658203125,0.1365279257297516,-0.06957247108221054,2.1789562702178955
1772469482016281600,9.763281494140625,0.08294478058815002,0.040190160274505615,2.217015504837036
1772469482026288400,9.773288330078126,0.03135694935917854,0.11537599563598633,2.1271111965179443
1772469482036296700,9.783296630859375,-0.04338972270488739,0.09164828807115555,2.044708013534546
1772469482046303500,9.793303466796875,-0.1023116335272789,0.024692954495549202,2.064195394515991
1772469482056310500,9.803310546875,-0.12410498410463333,0.006444527767598629,2.1614556312561035
1772469482066317600,9.813317626953125,-0.10961686074733734,0.08024977892637253,2.29655122756958
1772469482076324400,9.823324462890625,-0.08606493473052979,0.22279547154903412,2.41571044921875
1772469482086331600,9.83333154296875,-0.0714404433965683,0.2992987632751465,2.4866247177124023
1772469482096338400,9.84333837890625,-0.08192850649356842,0.2493618279695511,2.5996859073638916
1772469482106345700,9.853345703125,-0.11674267798662186,0.08824405074119568,2.737974166870117
1772469482116352500,9.8633525390625,-0.15268732607364655,-0.05660349875688553,2.830078363418579
1772469482126359600,9.873359619140626,-0.17828482389450073,-0.11237568408250809,2.82513427734375
1772469482136367600,9.88336767578125,-0.18248751759529114,-0.12029600888490677,2.754030227661133
1772469482146374400,9.89337451171875,-0.17891168594360352,-0.057995617389678955,2.6309337615966797
1772469482156381700,9.903381591796874,-0.15990377962589264,-0.07213247567415237,2.509408950805664
1772469482166388500,9.913388427734375,-0.10746480524539948,-0.11733643710613251,2.4200186729431152
1772469482176395800,9.923395751953125,-0.0423114113509655,-0.1424206644296646,2.2951712608337402
1772469482186402600,9.933402587890624,-0.005009578540921211,-0.13557714223861694,2.11893630027771
1772469482196409300,9.943409423828125,0.016394201666116714,-0.11290982365608215,1.9697363376617432
1772469482206416600,9.953416748046875,0.028055652976036072,-0.046430934220552444,1.8071959018707275
1772469482216423400,9.96342333984375,0.020368393510580063,-0.03427590802311897,1.5703688859939575
1772469482226430700,9.9734306640625,0.023830769583582878,-0.08361416310071945,1.283418893814087
1772469482236438500,9.9834384765625,0.009162921458482742,-0.18844851851463318,1.0049197673797607
1772469482246445600,9.993445556640625,-0.015968795865774155,-0.31851544976234436,0.7618048191070557
1772469482256452600,10.00345263671875,-0.05130526050925255,-0.38228023052215576,0.49769327044487
1772469482266459400,10.01345947265625,-0.06751459091901779,-0.31245002150535583,0.17644600570201874
1772469482276466700,10.023466796875,-0.08999530971050262,-0.20186668634414673,-0.2182801365852356
1772469482286473500,10.033473388671876,-0.13304264843463898,-0.078338623046875,-0.6741872429847717
1772469482296480800,10.043480712890625,-0.17462627589702606,-0.024500250816345215,-1.1047337055206299
1772469482306487600,10.053487548828125,-0.20639191567897797,0.06193077936768532,-1.4141855239868164
1772469482316494600,10.06349462890625,-0.23115204274654388,0.14370588958263397,-1.543673038482666
1772469482326501600,10.073501708984375,-0.2416353076696396,0.14991424977779388,-1.5388985872268677
1772469482336509400,10.083509521484375,-0.24406760931015015,0.03333287686109543,-1.5055675506591797
1772469482346516700,10.093516845703125,-0.21465778350830078,-0.055981822311878204,-1.461732268333435
1772469482356523500,10.1035234375,-0.17065012454986572,-0.05476821959018707,-1.4682884216308594
1772469482366530600,10.113530517578125,-0.12091425061225891,-0.0033945124596357346,-1.499099850654602
1772469482376537600,10.12353759765625,-0.0631541982293129,-0.019735317677259445,-1.4833111763000488
1772469482386544400,10.13354443359375,0.023633429780602455,-0.08011583983898163,-1.4425784349441528
1772469482396551700,10.1435517578125,0.10129489004611969,-0.08402527123689651,-1.4104727506637573
1772469482406558500,10.153558349609375,0.1467403918504715,-0.11782531440258026,-1.395255446434021
1772469482416565800,10.163565673828124,0.16282854974269867,-0.07945555448532104,-1.523927927017212
1772469482426572500,10.173572509765625,0.1559324711561203,0.005190538242459297,-1.772666096687317
1772469482436580600,10.18358056640625,0.09757596254348755,0.20187030732631683,-2.1093716621398926
1772469482446587600,10.193587646484374,0.05191207304596901,0.39749762415885925,-2.457334518432617
1772469482456594400,10.203594482421876,-0.007390932179987431,0.6104538440704346,-2.773144245147705
1772469482466601700,10.213601806640625,-0.09598258137702942,0.8439302444458008,-3.1092216968536377
1772469482476608500,10.2236083984375,-0.23631466925144196,0.8465145230293274,-3.2162392139434814
1772469482486615600,10.233615478515626,-0.3306691348552704,0.6526369452476501,-2.853625535964966
1772469482496622600,10.24362255859375,-0.3727013170719147,0.3014827370643616,-2.2543914318084717
1772469482506629400,10.25362939453125,-0.3282632827758789,0.11034049093723297,-1.8101515769958496
1772469482516636700,10.26363671875,-0.2202303260564804,0.15409737825393677,-1.6946897506713867
1772469482526643500,10.2736435546875,-0.11729089170694351,0.26111888885498047,-1.6239993572235107
1772469482536651500,10.283651611328125,-0.08798351138830185,0.327847421169281,-1.3436880111694336
1772469482546658600,10.293658447265624,-0.1105993390083313,0.2800878882408142,-0.7932664155960083
1772469482556665300,10.303665283203125,-0.1380065530538559,0.15929213166236877,-0.051484107971191406
1772469482566672600,10.313672607421875,-0.14236481487751007,0.042697615921497345,0.7293887734413147
1772469482576679400,10.323679443359374,-0.09139341861009598,-0.09914172440767288,1.2338374853134155
1772469482586686700,10.333686767578126,-0.0159657783806324,-0.17819739878177643,1.4008382558822632
1772469482596693500,10.343693603515625,-0.0018925706390291452,-0.07836933434009552,1.365691065788269
1772469482606700500,10.353700439453124,-0.08891429007053375,0.08538630604743958,1.3513704538345337
1772469482616707600,10.36370751953125,-0.19600044190883636,0.10302051901817322,1.5666440725326538
1772469482626714400,10.37371435546875,-0.3004051446914673,0.0015791170299053192,1.9724876880645752
1772469482636722700,10.38372265625,-0.385224312543869,-0.04149191826581955,2.3615365028381348
1772469482646729500,10.3937294921875,-0.4148746132850647,-0.02398988977074623,2.6495048999786377
1772469482656736500,10.403736572265625,-0.38459599018096924,0.007316721603274345,2.8030426502227783
1772469482666743600,10.41374365234375,-0.17582091689109802,-0.10982454568147659,2.7572193145751953
1772469482676750300,10.423750244140624,-0.20013447105884552,-0.3610912263393402,2.71535587310791
1772469482686757600,10.433757568359376,-0.275430291891098,-0.5394169688224792,2.4568698406219482
1772469482696764400,10.443764404296875,-0.331338107585907,-0.7145942449569702,2.301429033279419
1772469482706771700,10.453771728515624,-0.37325599789619446,-0.5467405319213867,2.039027690887451
1772469482716778500,10.463778564453126,-0.34048202633857727,-0.27361056208610535,1.8244966268539429
1772469482726785500,10.47378564453125,-0.17376895248889923,-0.23654253780841827,1.7610255479812622
1772469482736793600,10.483793701171875,-0.03176249563694,-0.4852299690246582,1.8282586336135864
1772469482746800400,10.49380029296875,0.02024930529296398,-0.7686027884483337,1.8687338829040527
1772469482756807700,10.5038076171875,0.024467531591653824,-0.9070800542831421,1.8867201805114746
1772469482766814500,10.513814453125,0.01619734987616539,-1.0616332292556763,1.977494239807129
1772469482776821500,10.523821533203124,-0.01113671250641346,-0.9736129641532898,1.9955673217773438
1772469482786828500,10.53382861328125,-0.06551553308963776,-0.7989492416381836,1.8353112936019897
1772469482796835300,10.54383544921875,-0.06459398567676544,-0.519267201423645,1.5363743305206299
1772469482806842600,10.553842529296874,0.038451701402664185,-0.279948353767395,1.0791468620300293
1772469482816849400,10.563849365234375,0.15515044331550598,-0.20817047357559204,0.5612092614173889
1772469482826856700,10.573856689453125,0.20919184386730194,-0.16134092211723328,0.07077454030513763
1772469482836864500,10.583864501953125,0.18029676377773285,-0.16930340230464935,-0.3244192600250244
1772469482846871600,10.59387158203125,0.1030280739068985,-0.06290879845619202,-0.5993722677230835
1772469482856878600,10.603878662109375,0.028243184089660645,0.07201705873012543,-0.7128965258598328
1772469482866885400,10.613885498046875,-0.01865881122648716,0.134901225566864,-0.6448649764060974
1772469482876892700,10.623892578125,0.04263797029852867,0.1382908821105957,-0.4814142882823944
1772469482886899500,10.6338994140625,0.18456953763961792,0.0793098583817482,-0.292628675699234
1772469482896906500,10.643906494140625,0.32485419511795044,0.0014335308223962784,-0.1187068298459053
1772469482906913500,10.65391357421875,0.40495994687080383,-0.10975024849176407,-0.06580393016338348
1772469482916920300,10.66392041015625,0.42107057571411133,-0.19711391627788544,-0.06456946581602097
1772469482926927400,10.67392724609375,0.3947039544582367,-0.29954734444618225,-0.038198310881853104
1772469482936935200,10.68393505859375,0.3565118908882141,-0.3500271141529083,0.005885848309844732
1772469482946942200,10.693942138671876,0.33484920859336853,-0.36057111620903015,0.020648282021284103
1772469482956949200,10.70394921875,0.30150502920150757,-0.36183443665504456,-0.09694258868694305
1772469482966956300,10.713956298828125,0.26116693019866943,-0.28891628980636597,-0.3895414173603058
1772469482976963300,10.72396337890625,0.23525166511535645,-0.1479436159133911,-0.7400786280632019
1772469482986970000,10.73397021484375,0.2182721495628357,0.002062656916677952,-1.1032447814941406
1772469482996977400,10.743977294921875,0.2318171262741089,0.09482242912054062,-1.3899739980697632
1772469483006984200,10.753984130859376,0.21036110818386078,0.06221920624375343,-1.538946509361267
1772469483016991500,10.763991455078125,0.16673865914344788,-0.012395111843943596,-1.4424484968185425
1772469483026999300,10.773999267578125,0.12190167605876923,-0.12261562049388885,-1.1883554458618164
1772469483037006300,10.78400634765625,0.0871022418141365,-0.2835860252380371,-1.0051841735839844
1772469483047013400,10.794013427734376,0.129754900932312,-0.4120042026042938,-0.9791637659072876
1772469483057020200,10.804020263671875,0.2569851875305176,-0.4914434552192688,-1.0807545185089111
1772469483067027500,10.81402734375,0.46782150864601135,-0.4553658664226532,-1.2974945306777954
1772469483077034200,10.8240341796875,0.6275373101234436,-0.25695568323135376,-1.6160950660705566
1772469483087041300,10.834041259765625,0.6726073026657104,-0.13460633158683777,-1.9497796297073364
1772469483097048300,10.84404833984375,0.5657842755317688,-0.10006309300661087,-2.0433332920074463
1772469483107055000,10.85405517578125,0.37370190024375916,-0.08940698951482773,-1.7417237758636475
1772469483117062400,10.8640625,0.19366276264190674,-0.0059243422001600266,-1.0802792310714722
1772469483127070200,10.8740703125,0.013726824894547462,0.1544935554265976,-0.35524803400039673
1772469483137077200,10.8840771484375,-0.10390681773424149,0.2742827236652374,0.19345678389072418
1772469483147084300,10.894084228515625,-0.16243404150009155,0.31067773699760437,0.5270171761512756
1772469483157091300,10.90409130859375,-0.1878843605518341,0.30758652091026306,0.7103869915008545
1772469483167098400,10.914098388671874,-0.17963682115077972,0.30288657546043396,0.8676495552062988
1772469483177105200,10.924105224609375,-0.1764373779296875,0.262335866689682,1.0626262426376343
1772469483187112400,10.934112548828125,-0.17624136805534363,0.23006103932857513,1.2283902168273926
1772469483197119200,10.944119140625,-0.16931849718093872,0.17394636571407318,1.3282397985458374
1772469483207126300,10.954126220703126,-0.1689155548810959,0.1317879855632782,1.3864245414733887
1772469483217134300,10.96413427734375,-0.17041712999343872,0.012604516930878162,1.42112135887146
1772469483227141400,10.974141357421875,-0.1788465678691864,-0.056183069944381714,1.4161444902420044
1772469483237148200,10.984148193359376,-0.1771300882101059,-0.03671075776219368,1.3203786611557007
1772469483247155200,10.9941552734375,-0.16990973055362701,0.03063126653432846,1.1627392768859863
1772469483257162200,11.004162353515625,-0.16684357821941376,0.07228009402751923,1.0287055969238281
1772469483267169300,11.014169189453124,-0.1604067087173462,0.11436336487531662,0.920802652835846
1772469483277176300,11.02417626953125,-0.17117364704608917,0.19611318409442902,0.832501232624054
1772469483287183400,11.034183349609375,-0.18422207236289978,0.2786876857280731,0.7522026300430298
1772469483297190100,11.044190185546874,-0.19203774631023407,0.3527511656284332,0.6678248047828674
1772469483307197400,11.054197509765626,-0.21780329942703247,0.45124685764312744,0.6482500433921814
1772469483317205200,11.064205322265625,-0.24260647594928741,0.44298988580703735,0.7410728931427002
1772469483327212300,11.07421240234375,-0.2568458616733551,0.2917175590991974,0.8646209239959717
1772469483337219300,11.08421923828125,-0.25553953647613525,0.17299588024616241,0.9438607096672058
1772469483347226400,11.094226318359375,-0.245961993932724,0.11673633754253387,0.9635630249977112
1772469483357233400,11.1042333984375,-0.2378188520669937,0.0837903693318367,0.9285181164741516
1772469483367240200,11.114240234375,-0.233499214053154,0.07529594749212265,0.8467116951942444
1772469483377247200,11.124247314453125,-0.22897475957870483,0.11453469842672348,0.7388087511062622
1772469483387254300,11.134254150390625,-0.21998898684978485,0.15319126844406128,0.5922073125839233
1772469483397261300,11.14426123046875,-0.2042565494775772,0.19375291466712952,0.4147571921348572
1772469483407269000,11.15426904296875,-0.16207261383533478,0.22884991765022278,0.2076183706521988
1772469483417276400,11.1642763671875,-0.10654503852128983,0.218449205160141,0.010587962344288826
1772469483427283200,11.174283203125,-0.0746997520327568,0.1960112750530243,-0.17364926636219025
1772469483437290200,11.184290283203126,-0.045633792877197266,0.1887635588645935,-0.32244572043418884
1772469483447297300,11.19429736328125,-0.020944159477949142,0.218779519200325,-0.4414554536342621
1772469483457304300,11.20430419921875,0.022305579856038094,0.28573113679885864,-0.5751213431358337
1772469483467311400,11.214311279296876,0.05922923982143402,0.3643124997615814,-0.6687711477279663
1772469483477318400,11.224318359375,0.0850750058889389,0.3642604649066925,-0.6868478655815125
1772469483487325200,11.2343251953125,0.09081277996301651,0.3022349178791046,-0.6056025624275208
1772469483497333200,11.244333251953124,0.09152655303478241,0.2680550217628479,-0.48030367493629456
1772469483507340300,11.25434033203125,0.10251928120851517,0.2285371720790863,-0.3678610324859619
1772469483517347300,11.264347412109375,0.12555761635303497,0.17074976861476898,-0.2754817306995392
1772469483527354400,11.274354248046874,0.14892499148845673,0.16638325154781342,-0.2686682939529419
1772469483537361400,11.284361328125,0.1679357886314392,0.19433054327964783,-0.4491216838359833
1772469483547368200,11.2943681640625,0.1573052555322647,0.23606334626674652,-0.7309565544128418
1772469483557375200,11.304375244140624,0.17573143541812897,0.2789851725101471,-0.928698718547821
