time,seconds_elapsed,z,y,x
1772514772520358400,0.0083583984375,1.280942678451538,-0.1205044835805893,-0.3155752718448639
1772514772530408700,0.01840869140625,0.9986559748649597,0.15219517052173615,-0.2292914092540741
1772514772540463600,0.028463623046875,0.6781539916992188,0.5323501825332642,-0.218639075756073
1772514772550486000,0.038486083984375,0.4597811996936798,0.7006570100784302,-0.24526990950107574
1772514772560528000,0.04852783203125,0.40225863456726074,0.5877423286437988,-0.23568280041217804
1772514772570579500,0.058579345703125,0.39054104685783386,0.48121902346611023,-0.16231487691402435
1772514772580625200,0.068625244140625,0.3404751121997833,0.48015379905700684,-0.03555215150117874
1772514772590682600,0.0786826171875,0.32662707567214966,0.4087831676006317,0.10825430601835251
1772514772600733200,0.088733154296875,0.41397619247436523,0.2713681161403656,0.24566936492919922
1772514772610757000,0.098757080078125,0.5418041348457336,0.32143405079841614,0.3660407066345215
1772514772620797200,0.108797119140625,0.6355446577072144,0.548328697681427,0.456452339887619
1772514772630868000,0.118867919921875,0.6856105923652649,0.8592435717582703,0.5011921525001526
1772514772640920600,0.128920654296875,0.7644378542900085,0.9785496592521667,0.46497422456741333
1772514772660983300,0.1489833984375,0.943263828754425,0.6250254511833191,0.21264714002609253
1772514772671036000,0.159035888671875,0.9709599018096924,0.6015903353691101,0.09973244369029999
1772514772711217400,0.199217529296875,1.1658974885940552,0.41410934925079346,0.08055824786424637
1772514772731277600,0.219277587890625,1.2393985986709595,0.19467133283615112,0.38095396757125854
1772514772741333000,0.2293330078125,1.2372682094573975,0.058454662561416626,0.5107792615890503
1772514772751385600,0.239385498046875,1.1978545188903809,-0.061916667968034744,0.605584979057312
1772514772761430000,0.249429931640625,1.043395757675171,-0.17909230291843414,0.6588466167449951
1772514772781547000,0.269547119140625,0.69200199842453,-0.2163754552602768,0.6833469867706299
1772514772791604500,0.2796044921875,0.5503259897232056,-0.051264338195323944,0.6833469867706299
1772514772801636600,0.28963671875,0.42249804735183716,0.1255643367767334,0.6694989800453186
1772514772811683800,0.299683837890625,0.3117138147354126,0.27562904357910156,0.6300853490829468
1772514772821732000,0.309732177734375,0.2169080674648285,0.3469996452331543,0.5800193548202515
1772514772831779800,0.31977978515625,0.14140968024730682,0.3480648994445801,0.5363448262214661
1772514772841840000,0.329840087890625,0.08175663650035858,0.30971649289131165,0.4990616738796234
1772514772851893000,0.33989306640625,0.03914731368422508,0.2074541300535202,0.47562655806541443
1772514772861908000,0.349907958984375,0.00719032296910882,0.08828118443489075,0.4585828185081482
1772514772871945700,0.35994580078125,-0.015179570764303207,-0.0001331541279796511,0.43315038084983826
1772514772882005800,0.370005859375,-0.020505735650658607,-0.07576470077037811,0.39267152547836304
1772514772892052200,0.38005224609375,-0.014114337973296642,-0.14287437498569489,0.3404751121997833
1772514772902088000,0.390087890625,0.002929390873759985,-0.18867939710617065,0.2776263654232025
1772514772912130000,0.400130126953125,0.015712186694145203,-0.20678836107254028,0.20732097327709198
1772514772922184400,0.410184326171875,0.03382114693522453,-0.1620485782623291,0.1412765234708786
1772514772932231700,0.420231689453125,0.08388710021972656,-0.019307348877191544,0.07416684925556183
1772514772942282200,0.4302822265625,0.18921200931072235,0.19467133283615112,-0.013182258233428001
1772514772952330800,0.440330810546875,0.32556185126304626,0.3693695366382599,-0.12822742760181427
1772514772962397700,0.450397705078125,0.4299546778202057,0.46950146555900574,-0.24846559762954712
1772514772972448000,0.460447998046875,0.4629769027233124,0.5142412185668945,-0.35072797536849976
1772514772982489000,0.470489013671875,0.43315038084983826,0.49187135696411133,-0.42742475867271423
1772514772992538600,0.48053857421875,0.3958672285079956,0.4109136462211609,-0.4860125780105591
1772514773002581800,0.490581787109375,0.39054104685783386,0.291607528924942,-0.5371437668800354
1772514773012630500,0.500630615234375,0.41504141688346863,0.17975807189941406,-0.5829487442970276
1772514773022638000,0.51063818359375,0.4480636417865753,0.09467258304357529,-0.6202319264411926
1772514773032682800,0.520682861328125,0.4714987576007843,0.008388710208237171,-0.6553846001625061
1772514773042733300,0.5307333984375,0.48960772156715393,-0.0991998240351677,-0.6969286799430847
1772514773052778500,0.540778564453125,0.4949339032173157,-0.24513675272464752,-0.7342118620872498
1772514773062854100,0.550854248046875,0.4821510910987854,-0.3655080795288086,-0.7256900072097778
1772514773072902700,0.560902587890625,0.45445504784584045,-0.3750951886177063,-0.6617760062217712
1772514773082952700,0.57095263671875,0.42143282294273376,-0.31757259368896484,-0.5595136284828186
1772514773093001200,0.581001220703125,0.38947582244873047,-0.27176758646965027,-0.4519250988960266
1772514773103042600,0.59104248046875,0.3628450036048889,-0.29413747787475586,-0.367771714925766
1772514773113090300,0.60109033203125,0.3426055610179901,-0.4049217104911804,-0.31770575046539307
1772514773123138800,0.611138916015625,0.3202356696128845,-0.5347470045089722,-0.2719007432460785
1772514773133186800,0.621186767578125,0.28295251727104187,-0.5880086421966553,-0.20053011178970337
1772514773143229700,0.631229736328125,0.24034319818019867,-0.5475297570228577,-0.10585752874612808
1772514773153277200,0.641277099609375,0.22116900980472565,-0.4262263774871826,-0.013182258233428001
1772514773163304400,0.651304443359375,0.2382127344608307,-0.2675066292285919,0.04007939249277115
1772514773173350000,0.661349853515625,0.28508299589157104,-0.13328728079795837,0.04114462435245514
1772514773183397400,0.6713974609375,0.3340837061405182,-0.053394805639982224,0.0027962366584688425
1772514773193443000,0.681443115234375,0.3564535975456238,-0.017176883295178413,-0.04407401755452156
1772514773203495200,0.6914951171875,0.3511274456977844,0.010519175790250301,-0.07070484012365341
1772514773213541000,0.701541015625,0.3298227787017822,0.014780107885599136,-0.05792204663157463
1772514773223585300,0.711585205078125,0.29360485076904297,0.007323476951569319,-0.015312724746763706
1772514773233631500,0.721631591796875,0.2477998286485672,-0.020372580736875534,0.04753602296113968
1772514773243687700,0.731687744140625,0.20306004583835602,-0.0778951644897461,0.1199718713760376
1772514773253734700,0.741734619140625,0.17017097771167755,-0.12689588963985443,0.18814678490161896
1772514773263766800,0.751766845703125,0.15099677443504333,-0.14607007801532745,0.22862564027309418
1772514773273812200,0.761812255859375,0.16271434724330902,-0.10985215753316879,0.2254299372434616
1772514773283873800,0.771873779296875,0.21051667630672455,-0.007589785382151604,0.17855969071388245
1772514773293920800,0.781920654296875,0.2680392563343048,0.12130340933799744,0.10079767554998398
1772514773303967500,0.791967529296875,0.3117138147354126,0.21278029680252075,0.013448567129671574
1772514773314014700,0.8020146484375,0.3340837061405182,0.24580252170562744,-0.05472634732723236
1772514773324057900,0.812057861328125,0.3298227787017822,0.24473728239536285,-0.08029194176197052
1772514773334104600,0.8221044921875,0.2989310026168823,0.22236739099025726,-0.05685681104660034
1772514773344157200,0.8321572265625,0.23927797377109528,0.1659100502729416,0.010252867825329304
1772514773354204400,0.842204345703125,0.14993155002593994,0.037150003015995026,0.08055824786424637
1772514773364231000,0.85223095703125,0.06471290439367294,-0.09280842542648315,0.1306242048740387
1772514773374276400,0.8622763671875,0.012516488321125507,-0.12796111404895782,0.1508636325597763
1772514773384324400,0.872324462890625,-0.010918638668954372,-0.08641702681779861,0.12423279881477356
1772514773394369800,0.882369873046875,-0.022636201232671738,0.005193010903894901,0.05818835273385048
1772514773404415500,0.89241552734375,-0.029027599841356277,0.1031944528222084,-0.01637795753777027
1772514773414461200,0.902461181640625,-0.018375270068645477,0.14899946749210358,-0.06324820965528488
1772514773424509400,0.912509521484375,-0.006657706573605537,0.19254086911678314,-0.08135717362165451
1772514773434555400,0.922555419921875,0.010386021807789803,0.23195448517799377,-0.08348763734102249
1772514773444601600,0.9326015625,0.0370168462395668,0.27882474660873413,-0.06537867337465286
1772514773454647600,0.9426474609375,0.05512581020593643,0.333151638507843,-0.04620448127388954
1772514773464694300,0.9526943359375,0.05619104206562042,0.356586754322052,-0.02063889056444168
1772514773474740200,0.962740234375,0.030625449493527412,0.3587172329425812,0.03368799388408661
1772514773484789200,0.972789306640625,-0.024766668677330017,0.3384777903556824,0.09760197252035141
1772514773494835500,0.98283544921875,-0.08761541545391083,0.27562904357910156,0.12636326253414154
1772514773504880000,0.992880126953125,-0.14620323479175568,0.22130216658115387,0.12849372625350952
1772514773514926300,1.00292626953125,-0.18348638713359833,0.21171505749225616,0.1093195378780365
1772514773524987600,1.012987548828125,-0.1856168508529663,0.22556309401988983,0.0667102187871933
1772514773535035400,1.023035400390625,-0.1557903289794922,0.24473728239536285,0.013448567129671574
1772514773545075200,1.0330751953125,-0.10039821267127991,0.26817241311073303,-0.04407401755452156
1772514773555122200,1.0431220703125,-0.026897134259343147,0.2809551954269409,-0.09520520269870758
1772514773565166600,1.05316650390625,0.05406057462096214,0.25752007961273193,-0.13248835504055023
1772514773575213300,1.06321337890625,0.12543119490146637,0.21278029680252075,-0.13887976109981537
1772514773585259800,1.073259765625,0.17123620212078094,0.18082331120967865,-0.10585752874612808
1772514773595306500,1.083306396484375,0.1744319051504135,0.15965180099010468,-0.04940018057823181
1772514773605339000,1.0933388671875,0.1531272530555725,0.1149120107293129,0.005991935729980469
1772514773615384000,1.103384033203125,0.11584409326314926,0.054193731397390366,0.03901416063308716
1772514773625435400,1.113435302734375,0.07216953486204147,-0.005459319334477186,0.04647079110145569
1772514773635481000,1.123481201171875,0.026364516466856003,-0.05232957378029823,0.0347532257437706
1772514773645538800,1.133538818359375,-0.022636201232671738,-0.07363422960042953,0.000665770610794425
1772514773655586000,1.1435859375,-0.07163692265748978,-0.07150376588106155,-0.05792204663157463
1772514773665604600,1.1536044921875,-0.11744193732738495,-0.024633513763546944,-0.13142313063144684
1772514773675648800,1.163648681640625,-0.16111649572849274,0.06378082931041718,-0.21224768459796906
1772514773685711400,1.17371142578125,-0.2090519815683365,0.16284750401973724,-0.283618301153183
1772514773695757300,1.18375732421875,-0.2495308369398117,0.24473728239536285,-0.32729285955429077
1772514773705802800,1.193802734375,-0.27616167068481445,0.2734985649585724,-0.345401793718338
1772514773715848700,1.2038486328125,-0.2932053804397583,0.2521939277648926,-0.34220612049102783
1772514773725898800,1.213898681640625,-0.3038577139377594,0.23408496379852295,-0.3240971565246582
1772514773735945200,1.2239453125,-0.31770575046539307,0.21278029680252075,-0.3251623809337616
1772514773746002000,1.234001953125,-0.33155378699302673,0.19360610842704773,-0.34966275095939636
1772514773756049200,1.244049072265625,-0.33901041746139526,0.21278029680252075,-0.38268497586250305
1772514773766078000,1.254077880859375,-0.34220612049102783,0.25645485520362854,-0.43701183795928955
1772514773776123400,1.264123291015625,-0.345401793718338,0.30012941360473633,-0.5147738456726074
1772514773786191600,1.274191650390625,-0.35179319977760315,0.3438039720058441,-0.5872097015380859
1772514773796239600,1.284239501953125,-0.3539236783981323,0.3885437548160553,-0.6340799331665039
1772514773806266400,1.294266357421875,-0.3485974967479706,0.4098483920097351,-0.6532541513442993
1772514773816312000,1.30431201171875,-0.32835808396339417,0.40558746457099915,-0.6319494843482971
1772514773826359000,1.314359130859375,-0.28574874997138977,0.38108712434768677,-0.5754921436309814
1772514773836405000,1.324405029296875,-0.22609570622444153,0.3161078989505768,-0.5083824396133423
1772514773846463200,1.334463134765625,-0.16005125641822815,0.23408496379852295,-0.429555207490921
1772514773856510200,1.34451025390625,-0.0908111184835434,0.16697527468204498,-0.3560541272163391
1772514773866544600,1.354544677734375,-0.020505735650658607,0.10639014840126038,-0.29959678649902344
1772514773876590600,1.364590576171875,0.03808208182454109,0.045671865344047546,-0.25698745250701904
1772514773886654700,1.37465478515625,0.07003907114267349,-0.028894444927573204,-0.21437814831733704
1772514773896702500,1.384702392578125,0.07749570161104202,-0.1087869256734848,-0.16857312619686127
1772514773906731500,1.3947314453125,0.06790860742330551,-0.19294032454490662,-0.13035789132118225
1772514773916777200,1.404777099609375,0.05938674136996269,-0.31650736927986145,-0.11118369549512863
1772514773926859800,1.41485986328125,0.017842652276158333,-0.35911667346954346,-0.08561810106039047
1772514773936909300,1.424909423828125,-0.03967992961406708,-0.3729647099971771,-0.07816147059202194
1772514773946927900,1.434927978515625,-0.10359390825033188,-0.36870378255844116,-0.08348763734102249
1772514773956974000,1.44497412109375,-0.15792079269886017,-0.3889431953430176,-0.10266183316707611
1772514773966988800,1.45498876953125,-0.21437814831733704,-0.36124715209007263,-0.11011846363544464
1772514773977032000,1.465031982421875,-0.2388785034418106,-0.3974650800228119,-0.12183602899312973
1772514773987116500,1.475116455078125,-0.2410089671611786,-0.505985677242279,-0.1260969638824463
1772514773997164000,1.4851640625,-0.2505960762500763,-0.5635082721710205,-0.0824224054813385
1772514774007206000,1.495205810546875,-0.2719007432460785,-0.6082480549812317,-0.006790860556066036
1772514774017252600,1.505252685546875,-0.283618301153183,-0.6114437580108643,0.07523208111524582
1772514774027282000,1.515281982421875,-0.28681400418281555,-0.5581821203231812,0.16684211790561676
1772514774037326800,1.525326904296875,-0.2697702646255493,-0.5347470045089722,0.22862564027309418
1772514774047388400,1.535388427734375,-0.24633513391017914,-0.5251598954200745,0.2488650679588318
1772514774057435100,1.54543505859375,-0.22716094553470612,-0.4473978579044342,0.2584521770477295
1772514774067466500,1.555466552734375,-0.19946488738059998,-0.35059481859207153,0.2669740319252014
1772514774077511700,1.56551171875,-0.16111649572849274,-0.33781203627586365,0.2914743721485138
1772514774087563300,1.575563232421875,-0.12702903151512146,-0.3516600430011749,0.33621418476104736
1772514774097609200,1.585609130859375,-0.12702903151512146,-0.29626792669296265,0.4054543077945709
1772514774107667700,1.595667724609375,-0.14194230735301971,-0.22063638269901276,0.4820179343223572
1772514774117715000,1.60571484375,-0.15046416223049164,-0.15991811454296112,0.5480623841285706
1772514774127753500,1.61575341796875,-0.16005125641822815,-0.07150376588106155,0.6034545302391052
1772514774137799700,1.625799560546875,-0.16324695944786072,-0.033155377954244614,0.6322157979011536
1772514774147823000,1.635822998046875,-0.1653774231672287,0.0030625448562204838,0.6300853490829468
1772514774157867000,1.645866943359375,-0.1664426624774933,0.07656362652778625,0.5949326157569885
1772514774167949800,1.65594970703125,-0.1643121987581253,0.19467133283615112,0.5352795720100403
1772514774177997600,1.66599755859375,-0.13874660432338715,0.28947708010673523,0.4374113082885742
1772514774188039400,1.676039306640625,-0.07802832126617432,0.3065207898616791,0.31703996658325195
1772514774198086700,1.686086669921875,-0.0034620072692632675,0.33954301476478577,0.2275604009628296
1772514774208135200,1.69613525390625,0.06045197322964668,0.42582690715789795,0.2169080674648285
1772514774218182400,1.706182373046875,0.1009308323264122,0.4854799509048462,0.2914743721485138
1772514774228225800,1.716225830078125,0.10412652790546417,0.501458466053009,0.416106641292572
1772514774238272800,1.726272705078125,0.1009308323264122,0.46737098693847656,0.5491276383399963
1772514774248321000,1.736321044921875,0.12436595559120178,0.3555215299129486,0.6567161679267883
1772514774258368000,1.746367919921875,0.17123620212078094,0.16497796773910522,0.7153039574623108
1772514774268376000,1.7563759765625,0.2275604009628296,-0.03209014609456062,0.7238258123397827
1772514774278419200,1.766419189453125,0.28295251727104187,-0.16737474501132965,0.6609770655632019
1772514774288502800,1.776502685546875,0.3298227787017822,-0.24300628900527954,0.5171706080436707
1772514774298550000,1.786550048828125,0.35858407616615295,-0.2707023322582245,0.3213009238243103
1772514774308596200,1.79659619140625,0.34793174266815186,-0.2770937383174896,0.10612384229898453
1772514774318643500,1.8066435546875,0.29786577820777893,-0.2994636297225952,-0.09200949966907501
1772514774328678400,1.816678466796875,0.20732097327709198,-0.31757259368896484,-0.2410089671611786
1772514774338724000,1.82672412109375,0.09880036115646362,-0.28561559319496155,-0.2953358590602875
1772514774348781300,1.83678125,0.010386021807789803,-0.14926578104496002,-0.23461757600307465
1772514774358828500,1.84682861328125,-0.03541899845004082,0.048867564648389816,-0.10053136944770813
1772514774368858400,1.8568583984375,-0.05246272683143616,0.27882474660873413,0.07416684925556183
1772514774378903800,1.86690380859375,-0.09400681406259537,0.5685681104660034,0.29467007517814636
1772514774388961000,1.8769609375,-0.12383333593606949,0.6218297481536865,0.4458000063896179
1772514774399007500,1.887007568359375,-0.08228924870491028,0.48761042952537537,0.5363448262214661
1772514774409052400,1.897052490234375,0.012516488321125507,0.3789566457271576,0.6247591972351074
1772514774419098600,1.9070986328125,0.10838746279478073,0.2628462612628937,0.6801512837409973
1772514774429134300,1.91713427734375,0.18814678490161896,0.12982527911663055,0.7078473567962646
1772514774439179500,1.927179443359375,0.23501703143119812,0.042476166039705276,0.7174344658851624
1772514774449226800,1.937226806640625,0.2360822707414627,-0.010785484686493874,0.6993255019187927
1772514774459272200,1.947272216796875,0.21264714002609253,-0.04274247586727142,0.6481943130493164
1772514774469321700,1.95732177734375,0.18175537884235382,-0.0768299326300621,0.5640408992767334
1772514774479367700,1.96736767578125,0.13927921652793884,-0.0778951644897461,0.4713656008243561
1772514774489423000,1.977423095703125,0.09986559301614761,-0.08854749798774719,0.37349733710289
1772514774499470000,1.987469970703125,0.07856093347072601,-0.1300915777683258,0.2776263654232025
1772514774509506600,1.997506591796875,0.07003907114267349,-0.1716356724500656,0.19879911839962006
1772514774519552300,2.00755224609375,0.07323476672172546,-0.19933173060417175,0.13595037162303925
1772514774529600000,2.01760009765625,0.08175663650035858,-0.23981058597564697,0.08481918275356293
1772514774539646000,2.02764599609375,0.08708280324935913,-0.2898765504360199,0.03581846132874489
1772514774549692400,2.0376923828125,0.09347419440746307,-0.33994248509407043,-0.02489982172846794
1772514774559738400,2.04773828125,0.1009308323264122,-0.3772256374359131,-0.09627043455839157
1772514774569785000,2.05778515625,0.09666989743709564,-0.3729647099971771,-0.17176882922649384
1772514774579831000,2.0678310546875,0.07962616533041,-0.3250292241573334,-0.23568280041217804
1772514774589890000,2.07789013671875,0.04553871229290962,-0.24194104969501495,-0.29640108346939087
1772514774599937500,2.0879375,-0.008788172155618668,-0.14287437498569489,-0.3464670479297638
1772514774609969700,2.0979697265625,-0.06631075590848923,-0.048068638890981674,-0.3784240186214447
1772514774620015600,2.108015625,-0.112115778028965,0.025432437658309937,-0.39333727955818176
1772514774630061300,2.118061279296875,-0.1440727710723877,0.07869409024715424,-0.3890763521194458
1772514774640107000,2.12810693359375,-0.16005125641822815,0.12130340933799744,-0.3667064607143402
1772514774650154800,2.13815478515625,-0.15046416223049164,0.14899946749210358,-0.32196667790412903
1772514774660200700,2.14820068359375,-0.12489857524633408,0.18934516608715057,-0.2388785034418106
1772514774670247400,2.158247314453125,-0.0908111184835434,0.2276935577392578,-0.13248835504055023
1772514774680293600,2.168293701171875,-0.05352795869112015,0.22023692727088928,-0.03661738336086273
1772514774690339000,2.178339111328125,-0.0077229393646121025,0.17336668074131012,0.02623136341571808
1772514774700385300,2.18838525390625,0.04127778112888336,0.0936073511838913,0.04966649040579796
1772514774710426000,2.198426025390625,0.08495233207941055,0.011584409512579441,0.04114462435245514
1772514774720471600,2.208471435546875,0.11690932512283325,-0.05232957378029823,0.0027962366584688425
1772514774730526000,2.21852587890625,0.1328878253698349,-0.10239552706480026,-0.06324820965528488
1772514774740572200,2.228572265625,0.12756165862083435,-0.1300915777683258,-0.1474016159772873
1772514774750619000,2.238618896484375,0.09560466557741165,-0.1311568170785904,-0.24207420647144318
1772514774760665000,2.2486650390625,0.04127778112888336,-0.11624355614185333,-0.34114086627960205
1772514774770709500,2.25870947265625,-0.020505735650658607,-0.08215609937906265,-0.42529428005218506
1772514774780755700,2.268755615234375,-0.09187635034322739,-0.036351077258586884,-0.471099317073822
1772514774790790400,2.278790283203125,-0.18029068410396576,0.020106272771954536,-0.46790361404418945
1772514774800835300,2.28883544921875,-0.28574874997138977,0.07549838721752167,-0.4402075409889221
1772514774810894600,2.29889453125,-0.386945903301239,0.11065108329057693,-0.4189028739929199
1772514774820941000,2.308941162109375,-0.4613790512084961,0.11171631515026093,-0.4125114977359772
1772514774830987300,2.3189873046875,-0.5071840882301331,0.08934641629457474,-0.41464194655418396
1772514774841033700,2.32903369140625,-0.5338149070739746,0.052063263952732086,-0.40612009167671204
1772514774851082000,2.33908203125,-0.5465977191925049,0.020106272771954536,-0.3656412363052368
1772514774861128700,2.349128662109375,-0.5434020161628723,0.024367205798625946,-0.29640108346939087
1772514774871176200,2.35917626953125,-0.5370106101036072,0.033954303711652756,-0.2175738513469696
1772514774881223000,2.369222900390625,-0.539141058921814,0.024367205798625946,-0.13781452178955078
1772514774891266600,2.3792666015625,-0.5529890656471252,0.011584409512579441,-0.04940018057823181
1772514774901312800,2.389312744140625,-0.5689675807952881,-0.011850717477500439,0.0454055592417717
1772514774911357700,2.399357666015625,-0.5838808417320251,-0.07150376588106155,0.12636326253414154
1772514774921404200,2.409404052734375,-0.5977289080619812,-0.17696183919906616,0.183885857462883
1772514774931456500,2.41945654296875,-0.6137073636054993,-0.27602851390838623,0.23182134330272675
1772514774941503500,2.42950341796875,-0.6307511329650879,-0.35059481859207153,0.2552564740180969
1772514774951543300,2.439543212890625,-0.6435338854789734,-0.4209001958370209,0.24566936492919922
1772514774961589500,2.449589599609375,-0.6488600373268127,-0.48574626445770264,0.2158428430557251
1772514774971637800,2.4596376953125,-0.6552514433860779,-0.5390079021453857,0.183885857462883
1772514774981684200,2.469684326171875,-0.6584471464157104,-0.5826824903488159,0.14979839324951172
1772514774991741000,2.479740966796875,-0.6648385524749756,-0.6157047152519226,0.10718907415866852
1772514775001788400,2.489788330078125,-0.6786866188049316,-0.63700932264328,0.05712312087416649
1772514775011845000,2.49984521484375,-0.7085131406784058,-0.6434007287025452,-0.005725627299398184
1772514775021893400,2.509893310546875,-0.7447310090065002,-0.6497921347618103,-0.07816147059202194
1772514775031914200,2.519914306640625,-0.7958621978759766,-0.6679010987281799,-0.15059731900691986
1772514775041960000,2.5299599609375,-0.8704285621643066,-0.6742925047874451,-0.21224768459796906
1772514775052008000,2.540008056640625,-0.9535167217254639,-0.6583139896392822,-0.2527265250682831
1772514775062053600,2.5500537109375,-1.0248873233795166,-0.6242265701293945,-0.2623136341571808
1772514775072101000,2.56010107421875,-1.0694940090179443,-0.5453993082046509,-0.22503048181533813
1772514775082147000,2.57014697265625,-1.1014509201049805,-0.4400743842124939,-0.13781452178955078
1772514775092192800,2.58019287109375,-1.1227556467056274,-0.3953346014022827,-0.04087831825017929
1772514775102238700,2.59023876953125,-1.1334079504013062,-0.4209001958370209,0.02516612969338894
1772514775112297700,2.600297607421875,-1.1355384588241577,-0.4495283365249634,0.05712312087416649
1772514775122345000,2.610344970703125,-1.1376688480377197,-0.4400743842124939,0.06138405203819275
1772514775132374300,2.620374267578125,-1.1515169143676758,-0.4059869349002838,0.02942706272006035
1772514775142419700,2.630419677734375,-1.1824086904525757,-0.3420729637145996,-0.02916075475513935
1772514775152471600,2.640471435546875,-1.2079741954803467,-0.235549658536911,-0.08455286920070648
1772514775162517800,2.650517822265625,-1.211169958114624,-0.11517832428216934,-0.12290126085281372
1772514775172566300,2.660566162109375,-1.195191502571106,-0.022503048181533813,-0.13994498550891876
1772514775182612700,2.67061279296875,-1.157908320426941,0.03608476743102074,-0.13355359435081482
1772514775192657200,2.6806572265625,-1.0982552766799927,0.043541401624679565,-0.12396649271249771
1772514775202703400,2.690703369140625,-1.0259525775909424,-0.0001331541279796511,-0.12183602899312973
1772514775212758800,2.7007587890625,-0.9471253156661987,-0.07469946891069412,-0.11650986224412918
1772514775222805800,2.7108056640625,-0.8736242055892944,-0.1737661361694336,-0.10053136944770813
1772514775232857000,2.720857177734375,-0.8129059672355652,-0.27283281087875366,-0.07070484012365341
1772514775242904800,2.73090478515625,-0.7724270820617676,-0.3527252972126007,-0.03661738336086273
1772514775252950000,2.740949951171875,-0.7511224150657654,-0.41450878977775574,-0.012117025442421436
1772514775262997200,2.750997314453125,-0.7404701113700867,-0.43687868118286133,0.000665770610794425
1772514775273024800,2.761024658203125,-0.7330134510993958,-0.41450878977775574,0.007057168986648321
1772514775283070000,2.771070068359375,-0.7276872992515564,-0.35911667346954346,-0.006790860556066036
1772514775293120300,2.781120361328125,-0.730883002281189,-0.2909417748451233,-0.039813082665205
1772514775303166200,2.791166259765625,-0.7479267120361328,-0.2142449915409088,-0.07709623873233795
1772514775313198300,2.8011982421875,-0.7724270820617676,-0.14820054173469543,-0.11650986224412918
1772514775323242800,2.81124267578125,-0.8022536039352417,-0.11411308497190475,-0.1580539494752884
1772514775333305900,2.821305908203125,-0.8416672348976135,-0.10772168636322021,-0.1749645173549652
1772514775343352300,2.831352294921875,-0.8949288725852966,-0.14820054173469543,-0.14207544922828674
1772514775353396000,2.84139599609375,-0.9545819163322449,-0.172700896859169,-0.04194355010986328
1772514775363442200,2.851442138671875,-1.0099740028381348,-0.13541774451732635,0.10292813926935196
1772514775373507000,2.861507080078125,-1.0556459426879883,-0.067242830991745,0.2371474951505661
1772514775383555300,2.871555419921875,-1.0780158042907715,0.009453942999243736,0.3138442933559418
1772514775393578800,2.881578857421875,-1.0748201608657837,0.08402025699615479,0.31917044520378113
1772514775403624400,2.89162451171875,-1.0620373487472534,0.145803764462471,0.2680392563343048
1772514775413689600,2.901689697265625,-1.042863130569458,0.16910573840141296,0.1828206181526184
1772514775423737000,2.911737060546875,-1.0216916799545288,0.145803764462471,0.0880148783326149
1772514775433785900,2.921785888671875,-0.9907998442649841,0.09147688746452332,0.000665770610794425
1772514775443833300,2.931833251953125,-0.9577776193618774,0.009453942999243736,-0.08348763734102249
1772514775453843700,2.94184375,-0.9417991638183594,-0.08961272984743118,-0.17176882922649384
1772514775463887600,2.9518876953125,-0.9428643584251404,-0.17057043313980103,-0.24740037322044373
1772514775473968000,2.961968017578125,-0.9535167217254639,-0.2153102308511734,-0.28681400418281555
1772514775484015600,2.972015625,-0.9694951772689819,-0.2366148829460144,-0.2942706346511841
1772514775494026200,2.982026123046875,-0.9716256856918335,-0.20039696991443634,-0.2846835255622864
1772514775504070100,2.992070068359375,-0.9620385766029358,-0.08854749798774719,-0.2846835255622864
1772514775514155500,3.002155517578125,-0.9311468005180359,0.029693370684981346,-0.2910749316215515
1772514775524203500,3.01220361328125,-0.8874722719192505,0.11810771375894547,-0.28787922859191895
1772514775534249200,3.022249267578125,-0.8469933867454529,0.14367330074310303,-0.2740311920642853
1772514775544297000,3.032296875,-0.7979927062988281,0.12130340933799744,-0.24313943088054657
1772514775554339000,3.042339111328125,-0.745796263217926,0.061650361865758896,-0.18348638713359833
1772514775564386300,3.05238623046875,-0.7031869292259216,-0.04593817517161369,-0.10479229688644409
1772514775574404900,3.06240478515625,-0.6754909157752991,-0.19826649129390717,-0.0003994623839389533
1772514775584449300,3.07244921875,-0.6627081036567688,-0.37189948558807373,0.12529803812503815
1772514775594550500,3.082550537109375,-0.6701647043228149,-0.536877453327179,0.24993029236793518
1772514775604600600,3.0926005859375,-0.7010564804077148,-0.6423355340957642,0.35006219148635864
1772514775614642400,3.102642333984375,-0.7500572204589844,-0.6657706499099731,0.4075847864151001
1772514775624691700,3.112691650390625,-0.8161016702651978,-0.6029219031333923,0.4054543077945709
1772514775634695200,3.122695068359375,-0.8874722719192505,-0.5123770833015442,0.33834463357925415
1772514775644739800,3.13273974609375,-0.9417991638183594,-0.42303067445755005,0.23182134330272675
1772514775654805200,3.14280517578125,-0.9705604314804077,-0.31544211506843567,0.12423279881477356
1772514775664852000,3.15285205078125,-0.9780170917510986,-0.20998406410217285,0.04114462435245514
1772514775674891000,3.16289111328125,-0.9694951772689819,-0.14500483870506287,-0.014247491955757141
1772514775684937000,3.17293701171875,-0.9524514675140381,-0.11411308497190475,-0.05153064802289009
1772514775694973200,3.18297314453125,-0.937538206577301,-0.066177599132061,-0.06537867337465286
1772514775705018000,3.19301806640625,-0.9130378365516663,-0.0778951644897461,-0.08881380409002304
1772514775715066000,3.203066162109375,-0.8864070177078247,-0.11304785311222076,-0.11118369549512863
1772514775725111600,3.213111572265625,-0.8608414530754089,-0.10985215753316879,-0.11011846363544464
1772514775735157500,3.223157470703125,-0.8363410830497742,-0.10346075892448425,-0.09200949966907501
1772514775745202700,3.23320263671875,-0.8129059672355652,-0.10026505589485168,-0.06218297779560089
1772514775755267300,3.243267333984375,-0.7788184881210327,-0.11091738939285278,-0.02916075475513935
1772514775765314600,3.253314453125,-0.7415353655815125,-0.1311568170785904,-0.0014646954368799925
1772514775775356000,3.26335595703125,-0.7053174376487732,-0.13648298382759094,0.011318100616335869
1772514775785402400,3.27340234375,-0.6690995097160339,-0.12370018661022186,0.011318100616335869
1772514775795418400,3.28341845703125,-0.6296858787536621,-0.0981345921754837,0.000665770610794425
1772514775805462000,3.2934619140625,-0.5924026966094971,-0.07043853402137756,-0.007856093347072601
1772514775815528000,3.30352783203125,-0.5583152770996094,-0.054460037499666214,0.008122402243316174
1772514775825573600,3.31357373046875,-0.5220973491668701,-0.061916667968034744,0.0667102187871933
1772514775835637200,3.32363720703125,-0.48587942123413086,-0.08961272984743118,0.16471165418624878
1772514775845684700,3.333684814453125,-0.4517919421195984,-0.13435252010822296,0.26484355330467224
1772514775855728000,3.34372802734375,-0.42422905564308167,-0.16737474501132965,0.33727940917015076
1772514775865775000,3.353775146484375,-0.4082505702972412,-0.14607007801532745,0.37136685848236084
1772514775875817700,3.363817626953125,-0.40292438864707947,-0.08215609937906265,0.3660407066345215
1772514775885864400,3.373864501953125,-0.4114462435245514,-0.017176883295178413,0.3234313726425171
1772514775895902200,3.383902099609375,-0.41357672214508057,0.033954303711652756,0.26271310448646545
1772514775905948200,3.3939482421875,-0.3890763521194458,0.07443315535783768,0.205190509557724
1772514775915967500,3.403967529296875,-0.345401793718338,0.07336792349815369,0.17642922699451447
1772514775926010600,3.4140107421875,-0.2932053804397583,0.045671865344047546,0.1934729516506195
1772514775936085800,3.424085693359375,-0.2388785034418106,0.037150003015995026,0.265908807516098
1772514775946132000,3.434132080078125,-0.18348638713359833,0.055258963257074356,0.36923640966415405
1772514775956177700,3.444177734375,-0.13555090129375458,0.11810771375894547,0.45006096363067627
1772514775966224000,3.454223876953125,-0.10252867639064789,0.1957365721464157,0.4575175940990448
1772514775976282400,3.464282470703125,-0.07802832126617432,0.23088926076889038,0.3979976773262024
1772514775986329900,3.474329833984375,-0.06844121962785721,0.21491076052188873,0.3106485903263092
1772514775996362500,3.484362548828125,-0.07802832126617432,0.16284750401973724,0.22116900980472565
1772514776006408400,3.494408447265625,-0.10572437942028046,0.07869409024715424,0.12636326253414154
1772514776016472300,3.504472412109375,-0.13768136501312256,-0.004394086077809334,0.015579032711684704
1772514776026520300,3.514520263671875,-0.1653774231672287,-0.060851436108350754,-0.10585752874612808
1772514776036548600,3.524548583984375,-0.18455162644386292,-0.0874822586774826,-0.2069215178489685
1772514776046594300,3.53459423828125,-0.197334423661232,-0.09067796170711517,-0.23142187297344208
1772514776056630300,3.54463037109375,-0.2090519815683365,-0.08002562820911407,-0.14101022481918335
1772514776066675200,3.55467529296875,-0.21970431506633759,-0.021437814459204674,0.04647079110145569
1772514776076743400,3.564743408203125,-0.21011722087860107,0.0712374597787857,0.2573869228363037
1772514776086790400,3.574790283203125,-0.15685556828975677,0.17975807189941406,0.42462852597236633
1772514776096825000,3.5848251953125,-0.06204982474446297,0.26710718870162964,0.49586597084999084
1772514776106871000,3.59487109375,0.05086487531661987,0.3129121959209442,0.46390897035598755
1772514776116916500,3.60491650390625,0.14993155002593994,0.2948032319545746,0.3532578945159912
1772514776126962400,3.61496240234375,0.22329947352409363,0.21384553611278534,0.22223423421382904
1772514776137025500,3.625025634765625,0.2691044807434082,0.10958584398031235,0.12849372625350952
1772514776147073000,3.635072998046875,0.2989310026168823,0.013714875094592571,0.09440627694129944
1772514776157103600,3.645103515625,0.3138442933559418,-0.05978620424866676,0.11890663951635361
1772514776167149600,3.655149658203125,0.3095833361148834,-0.11304785311222076,0.1828206181526184
1772514776177210400,3.66521044921875,0.2797568142414093,-0.1418091505765915,0.26271310448646545
1772514776187257600,3.675257568359375,0.25312599539756775,-0.151396244764328,0.32875755429267883
1772514776197292800,3.685292724609375,0.23927797377109528,-0.14393961429595947,0.36817115545272827
1772514776207339000,3.695339111328125,0.2371474951505661,-0.11730878800153732,0.3852148950099945
1772514776217383700,3.7053837890625,0.24353890120983124,-0.0981345921754837,0.377758264541626
1772514776227430000,3.715429931640625,0.2552564740180969,-0.10559122264385223,0.3511274456977844
1772514776237474800,3.725474853515625,0.25206077098846436,-0.13648298382759094,0.29467007517814636
1772514776247520500,3.7355205078125,0.22969086468219757,-0.2153102308511734,0.18601632118225098
1772514776257578000,3.745577880859375,0.19879911839962006,-0.3324858546257019,0.02942706272006035
1772514776267625000,3.755625,0.16377957165241241,-0.4294220507144928,-0.12929265201091766
1772514776277644500,3.76564453125,0.11690932512283325,-0.4793548583984375,-0.2612484097480774
1772514776287688700,3.775688720703125,0.05086487531661987,-0.5081161260604858,-0.3667064607143402
1772514776297754600,3.785754638671875,-0.03541899845004082,-0.4985290467739105,-0.44659894704818726
1772514776307801000,3.795801025390625,-0.14620323479175568,-0.45272403955459595,-0.5200999975204468
1772514776317844200,3.80584423828125,-0.27616167068481445,-0.3932041525840759,-0.6063839197158813
1772514776327890400,3.815890380859375,-0.4007939398288727,-0.31757259368896484,-0.7022548913955688
1772514776337938400,3.8259384765625,-0.5018579363822937,-0.21211452782154083,-0.7724270820617676
1772514776347985000,3.83598486328125,-0.5700328350067139,-0.08535179495811462,-0.7979927062988281
1772514776358047500,3.846047607421875,-0.5987941026687622,0.026497671380639076,-0.7714950442314148
1772514776368095200,3.85609521484375,-0.5838808417320251,0.0723026916384697,-0.6905373334884644
1772514776378133500,3.866133544921875,-0.5348801612854004,0.06697652488946915,-0.5680354833602905
1772514776388180500,3.876180419921875,-0.47735753655433655,0.06271559745073318,-0.44766417145729065
1772514776398232600,3.886232666015625,-0.4189028739929199,0.027562905102968216,-0.37203264236450195
1772514776408280000,3.896280029296875,-0.3667064607143402,-0.043807707726955414,-0.3379451632499695
1772514776418308400,3.906308349609375,-0.32835808396339417,-0.0981345921754837,-0.3230319023132324
1772514776428353800,3.916353759765625,-0.302792489528656,-0.1194392517209053,-0.31983622908592224
1772514776438417000,3.9264169921875,-0.27829211950302124,-0.1087869256734848,-0.3166405260562897
1772514776448464100,3.936464111328125,-0.2527265250682831,-0.09067796170711517,-0.3166405260562897
1772514776458496300,3.946496337890625,-0.23674803972244263,-0.07896039634943008,-0.32942330837249756
1772514776468542000,3.9565419921875,-0.23461757600307465,-0.06298190355300903,-0.3485974967479706
1772514776478597400,3.966597412109375,-0.24420467019081116,-0.057655736804008484,-0.36138030886650085
1772514776488644000,3.97664404296875,-0.2708354890346527,-0.061916667968034744,-0.3656412363052368
1772514776498677800,3.986677734375,-0.302792489528656,-0.06298190355300903,-0.3645760118961334
1772514776508723200,3.99672314453125,-0.32942330837249756,-0.07363422960042953,-0.3688369393348694
1772514776518783000,4.006782958984375,-0.3592498302459717,-0.06511236727237701,-0.36351075768470764
1772514776528829700,4.01682958984375,-0.3986634612083435,-0.033155377954244614,-0.35072797536849976
1772514776538865400,4.026865478515625,-0.43687868118286133,-0.013981183059513569,-0.33901041746139526
1772514776548911400,4.036911376953125,-0.4709661602973938,-0.00226362026296556,-0.3358147144317627
1772514776558960400,4.04696044921875,-0.5039883852005005,0.004127778112888336,-0.33901041746139526
1772514776569006600,4.057006591796875,-0.5359453558921814,0.0009320789249613881,-0.35072797536849976
1772514776579035000,4.067034912109375,-0.5710980296134949,-0.019307348877191544,-0.37096738815307617
1772514776589079000,4.0770791015625,-0.6051855087280273,-0.050199106335639954,-0.38588064908981323
1772514776599170600,4.087170654296875,-0.6339467763900757,-0.07256899774074554,-0.3805544972419739
1772514776609219600,4.097219482421875,-0.6552514433860779,-0.09493889659643173,-0.3699021637439728
1772514776619253200,4.107253173828125,-0.6595124006271362,-0.10985215753316879,-0.3464670479297638
1772514776629300700,4.11730078125,-0.6509905457496643,-0.09600412845611572,-0.29959678649902344
1772514776639342300,4.12734228515625,-0.6307511329650879,-0.058720968663692474,-0.24740037322044373
1772514776649389300,4.137389404296875,-0.6094464659690857,-0.017176883295178413,-0.20053011178970337
1772514776659438600,4.1474384765625,-0.6051855087280273,0.016910573467612267,-0.15485824644565582
1772514776669485800,4.15748583984375,-0.6073159575462341,0.03288906812667847,-0.11011846363544464
1772514776679529500,4.167529541015625,-0.6105116605758667,0.042476166039705276,-0.06963960826396942
1772514776689576400,4.177576416015625,-0.614772617816925,0.045671865344047546,-0.02916075475513935
1772514776699623200,4.187623046875,-0.615837812423706,0.022236740216612816,0.014513799920678139
1772514776709670000,4.197669921875,-0.6062507629394531,-0.034220609813928604,0.07097115367650986
1772514776719718400,4.207718505859375,-0.57748943567276,-0.09067796170711517,0.1412765234708786
1772514776729765000,4.21776513671875,-0.530619204044342,-0.11624355614185333,0.21051667630672455
1772514776739789000,4.2277890625,-0.47416186332702637,-0.1087869256734848,0.26377832889556885
1772514776749833700,4.237833740234375,-0.41464194655418396,-0.07469946891069412,0.30638766288757324
1772514776759901700,4.247901611328125,-0.35072797536849976,-0.04274247586727142,0.3308880031108856
1772514776769948700,4.25794873046875,-0.2921401560306549,-0.031024912372231483,0.32875755429267883
1772514776779994400,4.267994384765625,-0.24526990950107574,-0.033155377954244614,0.3117138147354126
1772514776790041300,4.278041259765625,-0.20372581481933594,-0.05232957378029823,0.2914743721485138
1772514776800069000,4.288069091796875,-0.1760297566652298,-0.11091738939285278,0.2669740319252014
1772514776810113800,4.29811376953125,-0.16750788688659668,-0.19720126688480377,0.24566936492919922
1772514776820162600,4.30816259765625,-0.16963836550712585,-0.2685718834400177,0.22329947352409363
1772514776830208000,4.3182080078125,-0.1856168508529663,-0.3026593327522278,0.2041252851486206
1772514776840268500,4.3282685546875,-0.21224768459796906,-0.28241991996765137,0.2062557488679886
1772514776850315500,4.3383154296875,-0.23142187297344208,-0.21211452782154083,0.2275604009628296
1772514776860350000,4.348349853515625,-0.24846559762954712,-0.16417904198169708,0.2584521770477295
1772514776870395400,4.3583955078125,-0.2729659676551819,-0.16950520873069763,0.2680392563343048
1772514776880439000,4.36843896484375,-0.302792489528656,-0.20252743363380432,0.24993029236793518
1772514776890484500,4.378484375,-0.3251623809337616,-0.2483324557542801,0.21371237933635712
1772514776900534500,4.388534423828125,-0.326227605342865,-0.2920069992542267,0.17642922699451447
1772514776910580200,4.398580322265625,-0.3134448230266571,-0.2792242169380188,0.1508636325597763
1772514776920639500,4.408639404296875,-0.29853156208992004,-0.2046578973531723,0.12529803812503815
1772514776930686700,4.418686767578125,-0.27616167068481445,-0.1194392517209053,0.10718907415866852
1772514776940730000,4.428730224609375,-0.24313943088054657,-0.047003407031297684,0.10079767554998398
1772514776950777000,4.438777099609375,-0.20372581481933594,-0.007589785382151604,0.09760197252035141
1772514776960830700,4.448830810546875,-0.1557903289794922,0.0030625448562204838,0.09440627694129944
1772514776970878200,4.458878173828125,-0.10785484313964844,-0.022503048181533813,0.09653674066066742
1772514776980919300,4.468919189453125,-0.05778888985514641,-0.0778951644897461,0.1093195378780365
1772514776990966300,4.47896630859375,-0.009853405877947807,-0.13754820823669434,0.1402112990617752
1772514777000996900,4.488996826171875,0.03914731368422508,-0.18761417269706726,0.17749445140361786
1772514777011042000,4.4990419921875,0.08282186836004257,-0.24194104969501495,0.21158191561698914
1772514777021088800,4.5090888671875,0.12756165862083435,-0.2973331809043884,0.24353890120983124
1772514777031134000,4.519134033203125,0.17336668074131012,-0.3442034125328064,0.27656111121177673
1772514777041204700,4.529204833984375,0.21371237933635712,-0.3878779709339142,0.3138442933559418
1772514777051252700,4.539252685546875,0.2360822707414627,-0.41450878977775574,0.354323148727417
1772514777061258000,4.549258056640625,0.23927797377109528,-0.4102478623390198,0.3958672285079956
1772514777071301600,4.559301513671875,0.2254299372434616,-0.3974650800228119,0.42462852597236633
1772514777081368600,4.56936865234375,0.1934729516506195,-0.3633776009082794,0.4406070113182068
1772514777091414500,4.57941455078125,0.13821399211883545,-0.31757259368896484,0.44486793875694275
1772514777101463300,4.58946337890625,0.06684337556362152,-0.27176758646965027,0.4256937503814697
1772514777111509500,4.599509521484375,-0.015179570764303207,-0.2142449915409088,0.3873453438282013
1772514777121569500,4.609569580078125,-0.09613727778196335,-0.12476541846990585,0.3330184817314148
1772514777131617300,4.6196171875,-0.16963836550712585,-0.004394086077809334,0.2595174014568329
1772514777141659600,4.62965966796875,-0.23461757600307465,0.10958584398031235,0.16577689349651337
1772514777151707000,4.639706787109375,-0.29000967741012573,0.20106273889541626,0.07523208111524582
1772514777161741300,4.6497412109375,-0.34220612049102783,0.26391148567199707,0.011318100616335869
1772514777171787300,4.659787353515625,-0.3890763521194458,0.29799893498420715,-0.02170412242412567
1772514777181841700,4.669841552734375,-0.41783764958381653,0.3043903410434723,-0.03555215150117874
1772514777191888400,4.679888427734375,-0.4189028739929199,0.27775952219963074,-0.04194355010986328
1772514777201925600,4.689925537109375,-0.39333727955818176,0.2521939277648926,-0.04726971685886383
1772514777211971600,4.6999716796875,-0.34966275095939636,0.24367205798625946,-0.07070484012365341
1772514777222016800,4.710016845703125,-0.2953358590602875,0.2085193693637848,-0.11011846363544464
1772514777232062700,4.720062744140625,-0.24420467019081116,0.1585865616798401,-0.1559234857559204
1772514777242091300,4.73009130859375,-0.21224768459796906,0.11278154700994492,-0.19520394504070282
1772514777252135400,4.740135498046875,-0.19946488738059998,0.0936073511838913,-0.21011722087860107
1772514777262217500,4.750217529296875,-0.20266057550907135,0.09893351793289185,-0.21650861203670502
1772514777272265200,4.76026513671875,-0.2069215178489685,0.12449911236763,-0.23674803972244263
1772514777282295000,4.770294921875,-0.20479105412960052,0.1861494779586792,-0.25698745250701904
1772514777292341000,4.780341064453125,-0.20585627853870392,0.27669426798820496,-0.2719007432460785
1772514777302390500,4.790390625,-0.20479105412960052,0.3661738634109497,-0.2932053804397583
1772514777312436700,4.800436767578125,-0.19413872063159943,0.4226312041282654,-0.31770575046539307
1772514777322495500,4.81049560546875,-0.17389929294586182,0.4716319143772125,-0.3166405260562897
1772514777332543000,4.82054296875,-0.15792079269886017,0.5142412185668945,-0.2740311920642853
1772514777342583600,4.83058349609375,-0.1440727710723877,0.5408720970153809,-0.218639075756073
1772514777352630500,4.840630615234375,-0.12809427082538605,0.5131760239601135,-0.17389929294586182
1772514777362670000,4.850670166015625,-0.10359390825033188,0.43647924065589905,-0.1474016159772873
1772514777372716300,4.86071630859375,-0.07057169079780579,0.3235645294189453,-0.12077079713344574
1772514777382759000,4.870759033203125,-0.03328853100538254,0.19467133283615112,-0.08455286920070648
1772514777392804600,4.8808046875,0.0007989247678779066,0.08402025699615479,-0.06963960826396942
1772514777402851800,4.890851806640625,0.03382114693522453,0.023301972076296806,-0.09627043455839157
1772514777412897500,4.9008974609375,0.06577813625335693,0.025432437658309937,-0.14953207969665527
1772514777422962200,4.910962158203125,0.09773512929677963,0.10639014840126038,-0.20479105412960052
1772514777433010000,4.921010009765625,0.12862688302993774,0.21064983308315277,-0.2687050402164459
1772514777443049000,4.931049072265625,0.1531272530555725,0.27456381916999817,-0.3347494900226593
1772514777453095700,4.941095703125,0.18601632118225098,0.26604193449020386,-0.38588064908981323
1772514777463131600,4.951131591796875,0.2275604009628296,0.20319320261478424,-0.38481542468070984
1772514777473177300,4.96117724609375,0.2712349593639374,0.11810771375894547,-0.34007564187049866
1772514777483235600,4.971235595703125,0.31917044520378113,0.024367205798625946,-0.2942706346511841
1772514777493282600,4.981282470703125,0.36817115545272827,-0.05978620424866676,-0.26657456159591675
1772514777503331600,4.99133154296875,0.40225863456726074,-0.1194392517209053,-0.24420467019081116
1772514777513378800,5.00137890625,0.4086500108242035,-0.14287437498569489,-0.2079867422580719
1772514777523424800,5.0114248046875,0.3958672285079956,-0.13541774451732635,-0.18455162644386292
1772514777533472000,5.021471923828125,0.37136685848236084,-0.10665645450353622,-0.19307348132133484
1772514777543513600,5.031513671875,0.33621418476104736,-0.050199106335639954,-0.21970431506633759
1772514777553560000,5.04156005859375,0.29680055379867554,0.017975807189941406,-0.2388785034418106
1772514777563594000,5.051593994140625,0.2488650679588318,0.10106398165225983,-0.21544337272644043
1772514777573639200,5.06163916015625,0.18814678490161896,0.18934516608715057,-0.1463363915681839
1772514777583687400,5.0716875,0.12436595559120178,0.23621542751789093,-0.06537867337465286
1772514777593733000,5.081733154296875,0.07643046975135803,0.24154159426689148,-0.005725627299398184
1772514777603780000,5.091780029296875,0.04873441159725189,0.23728065192699432,0.02836182899773121
1772514777613825800,5.10182568359375,0.03169068321585655,0.2404763549566269,0.04007939249277115
1772514777623873000,5.111873046875,0.025299284607172012,0.2511286735534668,0.04327509179711342
1772514777633918700,5.121918701171875,0.022103585302829742,0.2500634491443634,0.05925358831882477
1772514777643977500,5.1319775390625,0.018907885998487473,0.23728065192699432,0.09440627694129944
1772514777654024700,5.142024658203125,0.017842652276158333,0.2298240214586258,0.14553746581077576
1772514777664059600,5.1520595703125,0.025299284607172012,0.22023692727088928,0.19240771234035492
1772514777674105600,5.162105712890625,0.0370168462395668,0.20425842702388763,0.22223423421382904
1772514777684152800,5.17215283203125,0.04660394415259361,0.19041040539741516,0.2467346042394638
1772514777694198800,5.18219873046875,0.05086487531661987,0.17230144143104553,0.27336543798446655
1772514777704242700,5.19224267578125,0.05512581020593643,0.145803764462471,0.3021267056465149
1772514777714288600,5.20228857421875,0.06471290439367294,0.1031944528222084,0.31597474217414856
1772514777724349700,5.212349609375,0.08388710021972656,0.042476166039705276,0.32875755429267883
1772514777734397000,5.22239697265625,0.10306129604578018,-0.011850717477500439,0.3660407066345215
1772514777744440300,5.2324404296875,0.10945269465446472,-0.041677240282297134,0.41078048944473267
1772514777754487300,5.2424873046875,0.11584409326314926,-0.033155377954244614,0.44486793875694275
1772514777764523300,5.252523193359375,0.12543119490146637,0.010519175790250301,0.46071329712867737
1772514777774569000,5.26256884765625,0.13501828908920288,0.05632419511675835,0.456452339887619
1772514777784628000,5.2726279296875,0.1424749195575714,0.07656362652778625,0.43421560525894165
1772514777794675000,5.282675048828125,0.13821399211883545,0.041410934180021286,0.38308441638946533
1772514777804723000,5.292722900390625,0.11051792651414871,-0.044872939586639404,0.30532240867614746
1772514777814770200,5.302770263671875,0.04979964345693588,-0.1396786868572235,0.23288656771183014
1772514777824815900,5.31281591796875,-0.04181039705872536,-0.19294032454490662,0.1828206181526184
1772514777834863000,5.322863037109375,-0.14194230735301971,-0.19294032454490662,0.15938548743724823
1772514777844912000,5.332912109375,-0.2388785034418106,-0.14500483870506287,0.1732335239648819
1772514777854959600,5.342959716796875,-0.3145100474357605,-0.06937330216169357,0.22969086468219757
1772514777864963300,5.35296337890625,-0.3539236783981323,0.016910573467612267,0.3117138147354126
1772514777875006500,5.36300634765625,-0.3432713449001312,0.08721595257520676,0.3990629315376282
1772514777885095200,5.37309521484375,-0.28574874997138977,0.1138467788696289,0.4681699275970459
1772514777895143000,5.383142822265625,-0.21011722087860107,0.0829550251364708,0.5011921525001526
1772514777905186800,5.393186767578125,-0.15685556828975677,-0.007589785382151604,0.5011921525001526
1772514777915234000,5.403234130859375,-0.15259462594985962,-0.12689588963985443,0.47456130385398865
1772514777925281800,5.41328173828125,-0.19520394504070282,-0.23128871619701385,0.42249804735183716
1772514777935329000,5.4233291015625,-0.27616167068481445,-0.2877460718154907,0.3330184817314148
1772514777945372000,5.433371826171875,-0.3752283453941345,-0.2920069992542267,0.20945143699645996
1772514777955418600,5.443418701171875,-0.469900906085968,-0.24513675272464752,0.07416684925556183
1772514777965466000,5.453466064453125,-0.5476629137992859,-0.16098333895206451,-0.039813082665205
1772514777975512800,5.463512939453125,-0.5987941026687622,-0.0768299326300621,-0.10905323177576065
1772514777985561600,5.4735615234375,-0.615837812423706,-0.009720250964164734,-0.12716218829154968
1772514777995608600,5.483608642578125,-0.6041202545166016,0.04993279650807381,-0.09200949966907501
1772514778005651700,5.493651611328125,-0.5668371319770813,0.07975932210683823,-0.02703028731048107
1772514778015698400,5.503698486328125,-0.5082492828369141,0.060585130006074905,0.04753602296113968
1772514778025728800,5.513728759765625,-0.44327008724212646,-0.015046416781842709,0.11358047276735306
1772514778035773700,5.523773681640625,-0.38588064908981323,-0.12689588963985443,0.16684211790561676
1772514778045817900,5.53381787109375,-0.34966275095939636,-0.2557890713214874,0.22116900980472565
1772514778055862800,5.54386279296875,-0.34220612049102783,-0.37189948558807373,0.2712349593639374
1772514778065910500,5.55391064453125,-0.36244553327560425,-0.43687868118286133,0.2925396263599396
1772514778075955700,5.563955810546875,-0.4007939398288727,-0.43581345677375793,0.2786915898323059
1772514778086016300,5.574016357421875,-0.4517919421195984,-0.3868127465248108,0.2360822707414627
1772514778096063000,5.58406298828125,-0.5050535798072815,-0.30798548460006714,0.1721682846546173
1772514778106112000,5.594112060546875,-0.5572500228881836,-0.237680122256279,0.09653674066066742
1772514778116159000,5.604158935546875,-0.600924551486969,-0.20252743363380432,0.03262276202440262
1772514778126191600,5.614191650390625,-0.638207733631134,-0.19933173060417175,-0.0003994623839389533
1772514778136237000,5.624237060546875,-0.6648385524749756,-0.23448441922664642,-0.012117025442421436
1772514778146283300,5.634283203125,-0.684012770652771,-0.2973331809043884,-0.01957365684211254
1772514778156329000,5.644328857421875,-0.7053174376487732,-0.35698622465133667,-0.04194355010986328
1772514778166388000,5.654387939453125,-0.7319482564926147,-0.3953346014022827,-0.08987903594970703
1772514778176435000,5.66443505859375,-0.7649704813957214,-0.42303067445755005,-0.16963836550712585
1772514778186485200,5.6744853515625,-0.8129059672355652,-0.44313693046569824,-0.2740311920642853
1772514778196532500,5.684532470703125,-0.8714937567710876,-0.42303067445755005,-0.38161972165107727
1772514778206591000,5.694591064453125,-0.9332773089408875,-0.36124715209007263,-0.46896883845329285
1772514778216639500,5.704639404296875,-0.9812127947807312,-0.2685718834400177,-0.5264914035797119
1772514778226655000,5.714655029296875,-1.0121045112609863,-0.16950520873069763,-0.5307523608207703
1772514778236700000,5.724699951171875,-1.0270178318023682,-0.08428656309843063,-0.4742949903011322
1772514778246748000,5.734747802734375,-1.022756814956665,-0.019307348877191544,-0.3784240186214447
1772514778256793000,5.74479296875,-1.0025174617767334,0.016910573467612267,-0.2719007432460785
1772514778266840800,5.7548408203125,-0.9684299826622009,0.029693370684981346,-0.1643121987581253
1772514778276886300,5.76488623046875,-0.9279510974884033,0.025432437658309937,-0.05153064802289009
1772514778286934800,5.774934814453125,-0.8885374665260315,0.022236740216612816,0.05499265342950821
1772514778296980500,5.78498046875,-0.8597761988639832,0.026497671380639076,0.13808083534240723
1772514778307053300,5.79505322265625,-0.852319598197937,0.014780107885599136,0.19240771234035492
1772514778317101800,5.805101806640625,-0.8693633079528809,-0.015046416781842709,0.21903854608535767
1772514778327136000,5.815135986328125,-0.9109073877334595,-0.043807707726955414,0.22010377049446106
1772514778337183000,5.825182861328125,-0.9620385766029358,-0.066177599132061,0.20306004583835602
1772514778347213600,5.835213623046875,-1.020626425743103,-0.0981345921754837,0.16577689349651337
1772514778357259000,5.845259033203125,-1.0812115669250488,-0.14500483870506287,0.10292813926935196
1772514778367308000,5.85530810546875,-1.142994999885559,-0.20891882479190826,0.02942706272006035
1772514778377353700,5.865353759765625,-1.2058438062667847,-0.2707023322582245,-0.039813082665205
1772514778387398100,5.875398193359375,-1.267627239227295,-0.32929015159606934,-0.1037270650267601
1772514778397443800,5.88544384765625,-1.3198237419128418,-0.37189948558807373,-0.15379302203655243
1772514778407509800,5.895509765625,-1.3613678216934204,-0.3729647099971771,-0.18348638713359833
1772514778417557500,5.9055576171875,-1.3922595977783203,-0.36124715209007263,-0.20266057550907135
1772514778427581200,5.915581298828125,-1.4156947135925293,-0.3527252972126007,-0.21650861203670502
1772514778437626600,5.925626708984375,-1.4327384233474731,-0.3324858546257019,-0.21331290900707245
1772514778447673900,5.935673828125,-1.4369993209838867,-0.31544211506843567,-0.1962691843509674
1772514778457719300,5.94571923828125,-1.4327384233474731,-0.32929015159606934,-0.17709499597549438
1772514778467768300,5.955768310546875,-1.418890357017517,-0.362312376499176,-0.15059731900691986
1772514778477814300,5.965814208984375,-1.3911943435668945,-0.4059869349002838,-0.11970555782318115
1772514778487861800,5.97586181640625,-1.3592373132705688,-0.44846311211586,-0.09200949966907501
1772514778497908000,5.985907958984375,-1.3304760456085205,-0.4793548583984375,-0.06644391268491745
1772514778507971600,5.9959716796875,-1.3102365732192993,-0.49746382236480713,-0.03342168778181076
1772514778518019300,6.006019287109375,-1.295323371887207,-0.5091813802719116,0.007057168986648321
1772514778528034800,6.016034912109375,-1.2804100513458252,-0.51344233751297,0.0560578890144825
1772514778538079500,6.02607958984375,-1.2686924934387207,-0.5123770833015442,0.1199718713760376
1772514778548140000,6.03614013671875,-1.271888256072998,-0.5262250900268555,0.1934729516506195
1772514778558186200,6.046186279296875,-1.2942581176757812,-0.5453993082046509,0.27443066239356995
1772514778568232200,6.056232177734375,-1.3379327058792114,-0.5688344240188599,0.3553883731365204
1772514778578278400,6.0662783203125,-1.393324851989746,-0.5784215331077576,0.43528082966804504
1772514778588336600,6.076336669921875,-1.4519126415252686,-0.5698996782302856,0.5086487531661987
1772514778598384000,6.086384033203125,-1.5190223455429077,-0.5496602654457092,0.5693670511245728
1772514778608442400,6.0964423828125,-1.587197184562683,-0.5123770833015442,0.6077154278755188
1772514778618491000,6.106490966796875,-1.6531084775924683,-0.47402870655059814,0.6204982399940491
1772514778628508400,6.11650830078125,-1.7170225381851196,-0.4495283365249634,0.6087806820869446
1772514778638553600,6.1265537109375,-1.7745450735092163,-0.44846311211586,0.5768237113952637
1772514778648601600,6.1366015625,-1.8288719654083252,-0.4665720760822296,0.5374100804328918
1772514778658647300,6.146647216796875,-1.8778727054595947,-0.504920482635498,0.4916050434112549
1772514778668695600,6.156695556640625,-1.930069088935852,-0.575225830078125,0.4468652606010437
1772514778678741500,6.166741455078125,-1.9790698289871216,-0.6572487950325012,0.4075847864151001
1772514778688787500,6.176787353515625,-2.017418146133423,-0.7339455485343933,0.38095396757125854
1772514778698833200,6.186833251953125,-2.045114278793335,-0.7999899983406067,0.354323148727417
1772514778708897000,6.19689697265625,-2.060027599334717,-0.8457950353622437,0.3223661482334137
1772514778718944500,6.206944580078125,-2.0706799030303955,-0.8649691939353943,0.27656111121177673
1772514778728974000,6.21697412109375,-2.0760059356689453,-0.8575125932693481,0.21903854608535767
1772514778739019800,6.227019775390625,-2.0696146488189697,-0.827686071395874,0.15618979930877686
1772514778749067500,6.237067626953125,-2.0578970909118652,-0.7850767374038696,0.098667211830616
1772514778759113500,6.247113525390625,-2.039788007736206,-0.7520545125007629,0.04434032365679741
1772514778769161200,6.2571611328125,-2.02593994140625,-0.7339455485343933,-0.008921326138079166
1772514778779207400,6.26720751953125,-2.0184834003448486,-0.7445979118347168,-0.06431344151496887
1772514778789265700,6.277265625,-2.0057005882263184,-0.7669677734375,-0.11224892735481262
1772514778799313200,6.287313232421875,-1.9865264892578125,-0.7754896283149719,-0.1452711522579193
1772514778809360600,6.297360595703125,-1.9598956108093262,-0.7659025192260742,-0.16338011622428894
1772514778819408100,6.307408203125,-1.9215471744537354,-0.7382065057754517,-0.1653774231672287
1772514778829437400,6.3174375,-1.878937840461731,-0.6817491054534912,-0.1474016159772873
1772514778839483100,6.327483154296875,-1.8235458135604858,-0.5965304970741272,-0.1143793985247612
1772514778849530000,6.337530029296875,-1.7564361095428467,-0.49320289492607117,-0.07603100687265396
1772514778859575800,6.347575927734375,-1.6733479499816895,-0.4059869349002838,-0.03235645219683647
1772514778869624800,6.357624755859375,-1.5818710327148438,-0.36763855814933777,0.011318100616335869
1772514778879670800,6.3676708984375,-1.4891958236694336,-0.3750951886177063,0.05286218971014023
1772514778889717800,6.3777177734375,-1.4007813930511475,-0.4198349714279175,0.09014534205198288
1772514778899764000,6.387763916015625,-1.3240846395492554,-0.47296345233917236,0.13275466859340668
1772514778909805800,6.397805908203125,-1.2623010873794556,-0.5358121991157532,0.17962491512298584
1772514778919851500,6.4078515625,-1.2069090604782104,-0.6029219031333923,0.20838621258735657
1772514778929900300,6.417900390625,-1.1461907625198364,-0.6647053956985474,0.22116900980472565
1772514778939946500,6.427946533203125,-1.0918638706207275,-0.7158365845680237,0.19986434280872345
1772514778949991700,6.43799169921875,-1.0471240282058716,-0.7382065057754517,0.1529940962791443
1772514778960037600,6.44803759765625,-1.020626425743103,-0.7264889478683472,0.10718907415866852
1772514778970086400,6.45808642578125,-1.0216916799545288,-0.7094451785087585,0.06777545064687729
1772514778980132600,6.468132568359375,-1.0481892824172974,-0.6924014687538147,0.02836182899773121
1772514778990225200,6.47822509765625,-1.0950595140457153,-0.6572487950325012,-0.0003994623839389533
1772514779000276000,6.48827587890625,-1.1589735746383667,-0.6093133091926575,-0.02916075475513935
1772514779010254600,6.498254638671875,-1.2314094305038452,-0.5709648728370667,-0.06431344151496887
1772514779020298200,6.50829833984375,-1.3006495237350464,-0.536877453327179,-0.10479229688644409
1772514779030380800,6.518380859375,-1.3624330759048462,-0.49320289492607117,-0.12822742760181427
1772514779040428300,6.52842822265625,-1.416759967803955,-0.46550682187080383,-0.12396649271249771
1772514779050472700,6.53847265625,-1.4614996910095215,-0.4665720760822296,-0.1143793985247612
1772514779060520000,6.54852001953125,-1.494521975517273,-0.4793548583984375,-0.11224892735481262
1772514779070570000,6.558570068359375,-1.520087480545044,-0.4782896339893341,-0.12077079713344574
1772514779080617500,6.568617431640625,-1.5456531047821045,-0.4601806700229645,-0.14420592784881592
1772514779090659300,6.578659423828125,-1.5797405242919922,-0.4390091598033905,-0.18455162644386292
1772514779100706300,6.588706298828125,-1.6212846040725708,-0.4294220507144928,-0.2388785034418106
1772514779110753300,6.598753173828125,-1.6594998836517334,-0.4177044928073883,-0.2825530469417572
1772514779120800000,6.608800048828125,-1.6925221681594849,-0.38255181908607483,-0.2942706346511841
1772514779130840800,6.6188408203125,-1.714892029762268,-0.366573303937912,-0.28787922859191895
1772514779140887000,6.628886962890625,-1.7234138250350952,-0.3868127465248108,-0.28894445300102234
1772514779150938000,6.638938232421875,-1.7180876731872559,-0.41237834095954895,-0.29640108346939087
1772514779160984800,6.64898486328125,-1.6999787092208862,-0.41237834095954895,-0.279357373714447
1772514779171030000,6.659030029296875,-1.677608847618103,-0.40066078305244446,-0.22503048181533813
1772514779181076700,6.66907666015625,-1.6457849740982056,-0.4283568263053894,-0.17070358991622925
1772514779191124500,6.67912451171875,-1.602110505104065,-0.48468104004859924,-0.15272778272628784
1772514779201171200,6.689171142578125,-1.5467183589935303,-0.5358121991157532,-0.17283405363559723
1772514779211218400,6.699218505859375,-1.4923914670944214,-0.5869433879852295,-0.21437814831733704
1772514779221265200,6.70926513671875,-1.4433907270431519,-0.6316831707954407,-0.26550933718681335
1772514779231292000,6.7192919921875,-1.4082380533218384,-0.6423355340957642,-0.3145100474357605
1772514779241336800,6.7293369140625,-1.3858681917190552,-0.6082480549812317,-0.3443365693092346
1772514779251386000,6.73938623046875,-1.3773462772369385,-0.5698996782302856,-0.34966275095939636
1772514779261431300,6.749431396484375,-1.3805420398712158,-0.5507254600524902,-0.345401793718338
1772514779271488500,6.759488525390625,-1.3848029375076294,-0.5613778233528137,-0.3379451632499695
1772514779281535000,6.769534912109375,-1.381607174873352,-0.5805519819259644,-0.3230319023132324
1772514779291579600,6.77957958984375,-1.3752158880233765,-0.5933347940444946,-0.30066201090812683
1772514779301625600,6.78962548828125,-1.3645634651184082,-0.6103785037994385,-0.2846835255622864
1772514779311666400,6.79966650390625,-1.3539111614227295,-0.6487269401550293,-0.2825530469417572
1772514779321712000,6.809712158203125,-1.3485850095748901,-0.6892057657241821,-0.28787922859191895
1772514779331756500,6.819756591796875,-1.349650263786316,-0.6934667229652405,-0.27509641647338867
1772514779341802000,6.829802001953125,-1.3539111614227295,-0.6679010987281799,-0.25592222809791565
1772514779351847200,6.83984716796875,-1.3624330759048462,-0.6380745768547058,-0.2516613006591797
1772514779361892600,6.849892578125,-1.3752158880233765,-0.598660945892334,-0.25592222809791565
1772514779371949800,6.85994970703125,-1.3922595977783203,-0.5400731563568115,-0.2601831555366516
1772514779381996300,6.869996337890625,-1.418890357017517,-0.46550682187080383,-0.2516613006591797
1772514779392045600,6.880045654296875,-1.4519126415252686,-0.3953346014022827,-0.22503048181533813
1772514779402092300,6.89009228515625,-1.4881305694580078,-0.343138188123703,-0.17922545969486237
1772514779412130000,6.900130126953125,-1.517957091331482,-0.2994636297225952,-0.10905323177576065
1772514779422176000,6.910176025390625,-1.543522596359253,-0.26111525297164917,-0.0238345880061388
1772514779432234800,6.92023486328125,-1.557370662689209,-0.25472384691238403,0.04114462435245514
1772514779442282000,6.930281982421875,-1.555240273475647,-0.26218047738075256,0.07842778414487839
1772514779452323000,6.940322998046875,-1.5488488674163818,-0.27283281087875366,0.09440627694129944
1772514779462369800,6.950369873046875,-1.547783613204956,-0.2675066292285919,0.10079767554998398
1772514779472416800,6.960416748046875,-1.5531097650527954,-0.2472672164440155,0.09547150880098343
1772514779482463500,6.97046337890625,-1.5658925771713257,-0.21744069457054138,0.07949301600456238
1772514779492498000,6.980497802734375,-1.5765448808670044,-0.1940055638551712,0.0667102187871933
1772514779502543400,6.99054345703125,-1.5818710327148438,-0.19080986082553864,0.07203638553619385
1772514779512605400,7.00060546875,-1.578675389289856,-0.2057231217622757,0.09440627694129944
1772514779522652700,7.010652587890625,-1.5584359169006348,-0.24194104969501495,0.10399337112903595
1772514779532681000,7.020680908203125,-1.5190223455429077,-0.28561559319496155,0.09440627694129944
1772514779542726400,7.030726318359375,-1.4678910970687866,-0.3133116662502289,0.07310161739587784
1772514779552774400,7.0407744140625,-1.416759967803955,-0.3250292241573334,0.0560578890144825
1772514779562820000,7.050820068359375,-1.3688244819641113,-0.32715970277786255,0.05392742156982422
1772514779572881200,7.060881103515625,-1.3208889961242676,-0.3218335211277008,0.06244928762316704
1772514779582928100,7.07092822265625,-1.2697577476501465,-0.3133116662502289,0.07629731297492981
1772514779592959500,7.08095947265625,-1.2101047039031982,-0.29520270228385925,0.09653674066066742
1772514779603005000,7.0910048828125,-1.1493864059448242,-0.2898765504360199,0.11251524090766907
1772514779613052200,7.10105224609375,-1.1014509201049805,-0.29520270228385925,0.12742850184440613
1772514779623098000,7.11109814453125,-1.0609720945358276,-0.2930722236633301,0.15512455999851227
1772514779633144600,7.12114453125,-1.0270178318023682,-0.2802894413471222,0.20732097327709198
1772514779643190500,7.1311904296875,-0.9993217587471008,-0.26111525297164917,0.26484355330467224
1772514779653254700,7.141254638671875,-0.9620385766029358,-0.2366148829460144,0.30425718426704407
1772514779663302100,7.15130224609375,-0.9183640480041504,-0.21850591897964478,0.31917044520378113
1772514779673341400,7.161341552734375,-0.8736242055892944,-0.21317975223064423,0.3213009238243103
1772514779683388400,7.171388427734375,-0.838471531867981,-0.23448441922664642,0.3106485903263092
1772514779693439700,7.181439697265625,-0.8171668648719788,-0.278158962726593,0.2808220684528351
1772514779703487000,7.191487060546875,-0.8161016702651978,-0.3122464418411255,0.23395180702209473
1772514779713515300,7.201515380859375,-0.8342106342315674,-0.3133116662502289,0.18708154559135437
1772514779723560400,7.211560546875,-0.8661676049232483,-0.2920069992542267,0.1529940962791443
1772514779733625300,7.221625244140625,-0.8959941267967224,-0.2568543255329132,0.14553746581077576
1772514779743672600,7.231672607421875,-0.914103090763092,-0.2163754552602768,0.1732335239648819
1772514779753701400,7.241701416015625,-0.9354077577590942,-0.1524614691734314,0.23288656771183014
1772514779763746800,7.251746826171875,-0.96097332239151,-0.09067796170711517,0.30851811170578003
1772514779773806300,7.261806396484375,-0.9812127947807312,-0.043807707726955414,0.37988871335983276
1772514779783853300,7.271853271484375,-0.9961260557174683,-0.008655018173158169,0.4406070113182068
1772514779793876000,7.2818759765625,-1.0057131052017212,0.012649642303586006,0.4884093403816223
1772514779803920600,7.291920654296875,-1.0121045112609863,0.022236740216612816,0.521431565284729
1772514779813981700,7.301981689453125,-1.0174306631088257,0.020106272771954536,0.5395405292510986
1772514779824028000,7.31202783203125,-1.0238220691680908,-0.004394086077809334,0.5469971299171448
1772514779834074600,7.32207470703125,-1.0312787294387817,-0.053394805639982224,0.5459319353103638
1772514779844120800,7.332120849609375,-1.0334092378616333,-0.13861344754695892,0.5331491231918335
1772514779854181400,7.342181396484375,-1.0259525775909424,-0.22809302806854248,0.5065183043479919
1772514779864229000,7.35222900390625,-1.0163654088974,-0.2920069992542267,0.4660394489765167
1772514779874272300,7.362272216796875,-1.0014522075653076,-0.31544211506843567,0.41504141688346863
1772514779884319500,7.372319580078125,-0.9950608015060425,-0.2994636297225952,0.3564535975456238
1772514779894353400,7.382353515625,-0.9939955472946167,-0.27496325969696045,0.29573532938957214
1772514779904399000,7.392399169921875,-0.9876041412353516,-0.2920069992542267,0.2264951765537262
1772514779914448000,7.40244775390625,-0.9865389466285706,-0.3633776009082794,0.14340700209140778
1772514779924494000,7.412494140625,-1.0003869533538818,-0.46444159746170044,0.04753602296113968
1772514779934538000,7.4225380859375,-1.0323439836502075,-0.5496602654457092,-0.04726971685886383
1772514779944584000,7.432583984375,-1.0790810585021973,-0.5858781337738037,-0.11970555782318115
1772514779954646300,7.442646240234375,-1.1163642406463623,-0.5730953812599182,-0.1463363915681839
1772514779964693800,7.45269384765625,-1.1302121877670288,-0.5017247796058655,-0.11011846363544464
1772514779974734600,7.462734619140625,-1.1206251382827759,-0.34846433997154236,-0.03022598661482334
1772514779984781300,7.47278125,-1.0684287548065186,-0.1396786868572235,0.0560578890144825
1772514779994815200,7.482815185546875,-0.9801475405693054,0.07336792349815369,0.1199718713760376
1772514780004861000,7.49286083984375,-0.876819908618927,0.22236739099025726,0.1615159511566162
1772514780014909700,7.50290966796875,-0.7766880393028259,0.25538963079452515,0.18601632118225098
1772514780024955600,7.51295556640625,-0.6627081036567688,0.19360610842704773,0.2147776037454605
1772514780035012600,7.5230126953125,-0.5434020161628723,0.0829550251364708,0.265908807516098
1772514780045059600,7.5330595703125,-0.44327008724212646,-0.048068638890981674,0.331953227519989
1772514780055084300,7.543084228515625,-0.3752283453941345,-0.1737661361694336,0.3948020040988922
1772514780065129200,7.553129150390625,-0.3336842358112335,-0.26431095600128174,0.4406070113182068
1772514780075197400,7.563197509765625,-0.31024911999702454,-0.28348514437675476,0.4596480429172516
1772514780085244700,7.57324462890625,-0.3059881925582886,-0.22063638269901276,0.4479304850101471
1772514780095280000,7.583280029296875,-0.3240971565246582,-0.1087869256734848,0.41184571385383606
1772514780105326300,7.593326416015625,-0.36031508445739746,0.021171506494283676,0.36923640966415405
1772514780115381800,7.6033818359375,-0.40292438864707947,0.12662957608699799,0.3340837061405182
1772514780125428700,7.6134287109375,-0.4517919421195984,0.18082331120967865,0.31490951776504517
1772514780135461600,7.623461669921875,-0.49759697914123535,0.18295377492904663,0.2999962568283081
1772514780145507000,7.633507080078125,-0.5348801612854004,0.1585865616798401,0.2797568142414093
1772514780155557000,7.64355712890625,-0.5615109801292419,0.1351514458656311,0.2477998286485672
1772514780165603000,7.65360302734375,-0.5700328350067139,0.11597724258899689,0.205190509557724
1772514780175662600,7.66366259765625,-0.5689675807952881,0.09786828607320786,0.1519288569688797
1772514780185709800,7.673709716796875,-0.5721632838249207,0.08082455396652222,0.09973244369029999
1772514780195746800,7.683746826171875,-0.5785546898841858,0.09147688746452332,0.05073172226548195
1772514780205793300,7.693793212890625,-0.5860112905502319,0.12662957608699799,-0.004660394508391619
1772514780215851500,7.7038515625,-0.5902722477912903,0.1585865616798401,-0.06324820965528488
1772514780225899000,7.71389892578125,-0.5902722477912903,0.145803764462471,-0.12077079713344574
1772514780235946200,7.7239462890625,-0.5785546898841858,0.042476166039705276,-0.15379302203655243
1772514780245993700,7.73399365234375,-0.5583152770996094,-0.05659050494432449,-0.1559234857559204
1772514780256004000,7.744004150390625,-0.5284887552261353,-0.13754820823669434,-0.15166255831718445
1772514780266047700,7.7540478515625,-0.48694464564323425,-0.16950520873069763,-0.16750788688659668
1772514780276131800,7.7641318359375,-0.4379439353942871,-0.151396244764328,-0.22716094553470612
1772514780286179600,7.7741796875,-0.3901416063308716,-0.10133028775453568,-0.3368799388408661
1772514780296223000,7.784222900390625,-0.3464670479297638,-0.022503048181533813,-0.45618605613708496
1772514780306270500,7.7942705078125,-0.30811864137649536,0.0712374597787857,-0.5509917736053467
1772514780316316200,7.804316162109375,-0.2729659676551819,0.15006470680236816,-0.6159709692001343
1772514780326363400,7.81436328125,-0.24207420647144318,0.17123620212078094,-0.6553846001625061
1772514780336373500,7.82437353515625,-0.21650861203670502,0.13834713399410248,-0.6734935641288757
1772514780346417200,7.834417236328125,-0.20479105412960052,0.07336792349815369,-0.6756240725517273
1772514780356502000,7.844501953125,-0.19946488738059998,-0.0001331541279796511,-0.662841260433197
1772514780366549500,7.854549560546875,-0.20585627853870392,-0.06937330216169357,-0.624492883682251
1772514780376595000,7.864594970703125,-0.23355233669281006,-0.11198262125253677,-0.5456656217575073
1772514780386642400,7.874642333984375,-0.27829211950302124,-0.13328728079795837,-0.44659894704818726
1772514780396686300,7.884686279296875,-0.32942330837249756,-0.15778763592243195,-0.36031508445739746
1772514780406733300,7.8947333984375,-0.38161972165107727,-0.15033100545406342,-0.28574874997138977
1772514780416794000,7.904794189453125,-0.4379439353942871,-0.10133028775453568,-0.22396524250507355
1772514780426842600,7.914842529296875,-0.4933360517024994,-0.05232957378029823,-0.18348638713359833
1772514780436856600,7.924856689453125,-0.5327496528625488,-0.022503048181533813,-0.16857312619686127
1772514780446901800,7.93490185546875,-0.5561847686767578,-0.018242115154862404,-0.16338011622428894
1772514780456967400,7.944967529296875,-0.5796199440956116,-0.031024912372231483,-0.1559234857559204
1772514780467014400,7.955014404296875,-0.5987941026687622,-0.0555252730846405,-0.13887976109981537
1772514780477043500,7.96504345703125,-0.6105116605758667,-0.07896039634943008,-0.09840089827775955
1772514780487089000,7.9750888671875,-0.6200987696647644,-0.08961272984743118,-0.03555215150117874
1772514780497134800,7.985134765625,-0.6243597269058228,-0.09174319356679916,0.03049229457974434
1772514780507180000,7.995179931640625,-0.615837812423706,-0.09067796170711517,0.09334104508161545
1772514780517227000,8.00522705078125,-0.6051855087280273,-0.09280842542648315,0.1625811904668808
1772514780527272400,8.0152724609375,-0.6062507629394531,-0.10985215753316879,0.2254299372434616
1772514780537318700,8.025318603515625,-0.6105116605758667,-0.1418091505765915,0.2605826258659363
1772514780547364000,8.035364013671876,-0.6105116605758667,-0.16950520873069763,0.27230018377304077
1772514780557428700,8.0454287109375,-0.6041202545166016,-0.1844184696674347,0.26484355330467224
1772514780567476200,8.055476318359375,-0.5924026966094971,-0.1940055638551712,0.24247366189956665
1772514780577505800,8.065505859375,-0.5689675807952881,-0.19933173060417175,0.20838621258735657
1772514780587551500,8.075551513671876,-0.5359453558921814,-0.19720126688480377,0.1732335239648819
1772514780597609500,8.085609375,-0.5007926821708679,-0.20146219432353973,0.14766792953014374
1772514780607656400,8.095656494140625,-0.46563997864723206,-0.2163754552602768,0.13595037162303925
1772514780617692000,8.10569189453125,-0.42742475867271423,-0.24407151341438293,0.13381989300251007
1772514780627737900,8.11573779296875,-0.3901416063308716,-0.27602851390838623,0.14873315393924713
1772514780637795800,8.1257958984375,-0.3571193814277649,-0.3133116662502289,0.18921200931072235
1772514780647842800,8.1358427734375,-0.3326190114021301,-0.35059481859207153,0.24247366189956665
1772514780657890600,8.145890625,-0.30918389558792114,-0.3761604130268097,0.29467007517814636
1772514780667937500,8.1559375,-0.28681400418281555,-0.38042134046554565,0.3447360396385193
1772514780677967600,8.165967529296875,-0.2740311920642853,-0.37083426117897034,0.38947582244873047
1772514780688013000,8.176012939453125,-0.279357373714447,-0.3963998258113861,0.3990629315376282
1772514780698062000,8.18606201171875,-0.29746630787849426,-0.45165881514549255,0.36071452498435974
1772514780708107800,8.196107666015624,-0.3166405260562897,-0.491072416305542,0.28508299589157104
1772514780718155500,8.206155517578125,-0.3336842358112335,-0.5390079021453857,0.16045072674751282
1772514780728201500,8.216201416015625,-0.36031508445739746,-0.5954652428627014,-0.02916075475513935
1772514780738249700,8.226249755859374,-0.3784240186214447,-0.5954652428627014,-0.25379177927970886
1772514780748296000,8.2362958984375,-0.3752283453941345,-0.5027899742126465,-0.45618605613708496
1772514780758341400,8.24634130859375,-0.345401793718338,-0.3452686667442322,-0.5744268894195557
1772514780768387600,8.2563876953125,-0.28681400418281555,-0.20039696991443634,-0.5744268894195557
1772514780778431500,8.266431396484375,-0.2069215178489685,-0.15352670848369598,-0.47003406286239624
1772514780788477400,8.2764775390625,-0.10572437942028046,-0.22063638269901276,-0.29959678649902344
1772514780798531600,8.286531494140625,0.011451254598796368,-0.36018192768096924,-0.10798799991607666
1772514780808578300,8.296578369140626,0.12543119490146637,-0.4921376705169678,0.0560578890144825
1772514780818618600,8.30661865234375,0.2169080674648285,-0.5603125691413879,0.17110306024551392
1772514780828664600,8.31666455078125,0.2776263654232025,-0.53794264793396,0.2382127344608307
1772514780838709500,8.32670947265625,0.30745288729667664,-0.43687868118286133,0.270169734954834
1772514780848755500,8.33675537109375,0.31917044520378113,-0.31544211506843567,0.28295251727104187
1772514780858805200,8.34680517578125,0.31810522079467773,-0.20998406410217285,0.29467007517814636
1772514780868851500,8.3568515625,0.2989310026168823,-0.13861344754695892,0.3213009238243103
1772514780878894600,8.36689453125,0.2552564740180969,-0.10239552706480026,0.3447360396385193
1772514780888940500,8.3769404296875,0.19666863977909088,-0.09387365728616714,0.3649754524230957
1772514780898988500,8.386988525390626,0.1339530497789383,-0.12476541846990585,0.38095396757125854
1772514780909035000,8.397034912109374,0.07216953486204147,-0.1833532303571701,0.3958672285079956
1772514780919092700,8.4070927734375,0.015712186694145203,-0.23128871619701385,0.40438908338546753
1772514780929140000,8.417139892578126,-0.04394086077809334,-0.27602851390838623,0.3766930401325226
1772514780939175200,8.427175048828126,-0.11318100988864899,-0.34100770950317383,0.3106485903263092
1772514780949221400,8.437221435546874,-0.17922545969486237,-0.39213889837265015,0.21371237933635712
1772514780959266800,8.447266845703124,-0.2388785034418106,-0.4049217104911804,0.09334104508161545
1772514780969313000,8.45731298828125,-0.29853156208992004,-0.3846822679042816,-0.05259587988257408
1772514780979361000,8.467361083984375,-0.3560541272163391,-0.35059481859207153,-0.2175738513469696
1772514780989407200,8.4774072265625,-0.4007939398288727,-0.31650736927986145,-0.37203264236450195
1772514780999452400,8.487452392578126,-0.42635950446128845,-0.278158962726593,-0.49027350544929504
1772514781009498600,8.49749853515625,-0.42635950446128845,-0.24300628900527954,-0.5691007375717163
1772514781019543800,8.507543701171874,-0.40718531608581543,-0.24194104969501495,-0.6138405203819275
1772514781029589800,8.51758984375,-0.3773587942123413,-0.2675066292285919,-0.6319494843482971
1772514781039638500,8.527638427734376,-0.3368799388408661,-0.30692026019096375,-0.6212971806526184
1772514781049685000,8.53768505859375,-0.2804225981235504,-0.35698622465133667,-0.5765573978424072
1772514781059744000,8.547743896484375,-0.22396524250507355,-0.4049217104911804,-0.5030562877655029
1772514781069791500,8.55779150390625,-0.17389929294586182,-0.40066078305244446,-0.4210333526134491
1772514781079824400,8.567824462890625,-0.13448566198349,-0.34952959418296814,-0.3581846058368683
1772514781089870300,8.577870361328126,-0.08655018359422684,-0.3005288541316986,-0.31131434440612793
1772514781099913700,8.587913818359375,-0.026897134259343147,-0.2579195499420166,-0.28681400418281555
1772514781109959700,8.597959716796876,0.0370168462395668,-0.23874534666538239,-0.27722689509391785
1772514781120023600,8.6080234375,0.11051792651414871,-0.21957115828990936,-0.2580527067184448
1772514781130071000,8.618071044921875,0.18601632118225098,-0.20785360038280487,-0.2388785034418106
1772514781140103400,8.628103515625,0.2595174014568329,-0.23128871619701385,-0.2282261699438095
1772514781150149600,8.638149658203124,0.3415403366088867,-0.27283281087875366,-0.21437814831733704
1772514781160206600,8.64820654296875,0.4288894534111023,-0.3090507388114929,-0.18455162644386292
1772514781170253800,8.65825390625,0.5130428671836853,-0.33781203627586365,-0.15272778272628784
1772514781180297000,8.668296875,0.6003919839859009,-0.34100770950317383,-0.12290126085281372
1772514781190343700,8.67834375,0.6834801435470581,-0.3090507388114929,-0.10798799991607666
1772514781200380700,8.688380615234376,0.7559159994125366,-0.26111525297164917,-0.1250317245721817
1772514781210426600,8.698426513671874,0.8111749291419983,-0.20785360038280487,-0.16750788688659668
1772514781220473000,8.70847314453125,0.8516538143157959,-0.15991811454296112,-0.21970431506633759
1772514781230518800,8.718518798828125,0.8750889301300049,-0.12370018661022186,-0.26444411277770996
1772514781240552700,8.728552734375,0.8889369368553162,-0.0874822586774826,-0.30066201090812683
1772514781250597400,8.738597412109375,0.8942631483078003,-0.047003407031297684,-0.3336842358112335
1772514781260670700,8.748670654296875,0.8921326398849487,-0.00226362026296556,-0.3645760118961334
1772514781270718500,8.758718505859376,0.8900021910667419,0.035019535571336746,-0.3890763521194458
1772514781280749800,8.768749755859375,0.8836107850074768,0.07549838721752167,-0.3975982367992401
1772514781290795800,8.778795654296875,0.8697627782821655,0.12023817747831345,-0.386945903301239
1772514781300843300,8.78884326171875,0.8420667052268982,0.15965180099010468,-0.345401793718338
1772514781310889500,8.798889404296874,0.8069140315055847,0.2170412242412567,-0.26444411277770996
1772514781320948500,8.808948486328125,0.7708292603492737,0.2820204496383667,-0.1653774231672287
1772514781330995700,8.81899560546875,0.7346113324165344,0.3256950080394745,-0.07496577501296997
1772514781341029400,8.829029296875,0.714371919631958,0.34913012385368347,0.0017310036346316338
1772514781351075600,8.83907568359375,0.7079805135726929,0.35978245735168457,0.07097115367650986
1772514781361119500,8.849119384765626,0.7122414112091064,0.39173945784568787,0.11464570462703705
1772514781371165400,8.85916552734375,0.7069152593612671,0.4844147264957428,0.11251524090766907
1772514781381215200,8.86921533203125,0.699458658695221,0.5430025458335876,0.08268871158361435
1772514781391261700,8.87926171875,0.6845453977584839,0.5430025458335876,0.05179695412516594
1772514781401308400,8.889308349609376,0.6568493247032166,0.4620448350906372,0.04220985993742943
1772514781411354600,8.899354736328124,0.6440665125846863,0.3342168629169464,0.08268871158361435
1772514781421400000,8.909400146484375,0.6653711795806885,0.21064983308315277,0.17110306024551392
1772514781431446300,8.9194462890625,0.7047848105430603,0.12769481539726257,0.2786915898323059
1772514781441473000,8.92947314453125,0.7569811940193176,0.08188978582620621,0.354323148727417
1772514781451517400,8.939517333984375,0.8196967840194702,0.08188978582620621,0.3852148950099945
1772514781461576400,8.949576416015624,0.8846760392189026,0.11065108329057693,0.39054104685783386
1772514781471622400,8.959622314453124,0.9464595317840576,0.14473854005336761,0.3862801194190979
1772514781481693200,8.969693115234374,1.00504732131958,0.16284750401973724,0.37030163407325745
1772514781491741400,8.979741455078125,1.0647003650665283,0.16910573840141296,0.3436708152294159
1772514781501787000,8.989786865234375,1.1168968677520752,0.18401899933815002,0.31490951776504517
1772514781511835000,8.9998349609375,1.1552451848983765,0.2085193693637848,0.2925396263599396
1772514781521842400,9.009842529296876,1.1818760633468628,0.22343263030052185,0.27230018377304077
1772514781531886600,9.019886474609375,1.194658875465393,0.22236739099025726,0.2669740319252014
1772514781541995800,9.029995849609374,1.1999850273132324,0.2521939277648926,0.2776263654232025
1772514781552046300,9.04004638671875,1.2074416875839233,0.2798899710178375,0.29467007517814636
1772514781562063600,9.050063720703125,1.2127678394317627,0.3107817471027374,0.3106485903263092
1772514781572110800,9.06011083984375,1.2063764333724976,0.36404338479042053,0.3404751121997833
1772514781582155800,9.07015576171875,1.1989197731018066,0.464175283908844,0.38308441638946533
1772514781592202800,9.08020263671875,1.1957240104675293,0.5653724074363708,0.40119338035583496
1772514781602248400,9.09024853515625,1.2010502815246582,0.6005251407623291,0.37243208289146423
1772514781612295200,9.100295166015625,1.2170287370681763,0.5568505525588989,0.3213009238243103
1772514781622320600,9.110320556640625,1.2266157865524292,0.4716319143772125,0.2691044807434082
1772514781632365300,9.120365234375,1.2106373310089111,0.3469996452331543,0.2041252851486206
1772514781642418200,9.130418212890625,1.157375693321228,0.20106273889541626,0.12103710323572159
1772514781652463600,9.140463623046875,1.0785484313964844,0.10639014840126038,0.02623136341571808
1772514781662516700,9.150516845703125,0.9922645688056946,0.08508548885583878,-0.05259587988257408
1772514781672563000,9.16056298828125,0.9198287129402161,0.14367330074310303,-0.08561810106039047
1772514781682613800,9.17061376953125,0.8740236759185791,0.2276935577392578,-0.0611177459359169
1772514781692660500,9.180660400390625,0.8708279728889465,0.29799893498420715,0.02090519852936268
1772514781702710300,9.190710205078124,0.9113068580627441,0.3991960883140564,0.12636326253414154
1772514781712757200,9.20075732421875,0.9943950176239014,0.509980320930481,0.21051667630672455
1772514781722804200,9.21080419921875,1.120092511177063,0.5834813714027405,0.2616478502750397
1772514781732851500,9.2208515625,1.2681598663330078,0.5579158067703247,0.2914743721485138
1772514781742883300,9.23088330078125,1.4054418802261353,0.44606631994247437,0.3426055610179901
1772514781752929000,9.240928955078125,1.5045084953308105,0.30012941360473633,0.4278241991996765
1772514781762991600,9.25099169921875,1.5428569316864014,0.17869283258914948,0.5235620141029358
1772514781773038800,9.261038818359374,1.5140955448150635,0.11065108329057693,0.5874760150909424
1772514781783067400,9.2710673828125,1.4288769960403442,0.09680305421352386,0.5842803120613098
1772514781793112800,9.28111279296875,1.3075735569000244,0.1468690037727356,0.5161054134368896
1772514781803161300,9.291161376953125,1.1765499114990234,0.23408496379852295,0.40225863456726074
1772514781813207000,9.30120703125,1.059374213218689,0.337412565946579,0.27443066239356995
1772514781823251500,9.31125146484375,0.9752208590507507,0.4311530590057373,0.1625811904668808
1772514781833297200,9.321297119140626,0.9176982641220093,0.4726971685886383,0.09334104508161545
1772514781843346200,9.33134619140625,0.8868064880371094,0.4503272473812103,0.0773625448346138
1772514781853392100,9.34139208984375,0.8761541843414307,0.3864132761955261,0.10718907415866852
1772514781863440600,9.351440673828124,0.8772193789482117,0.3011946380138397,0.1615159511566162
1772514781873486800,9.36148681640625,0.8857412338256836,0.21384553611278534,0.2254299372434616
1772514781883531300,9.37153125,0.8878717422485352,0.12769481539726257,0.2904091477394104
1772514781893577200,9.3815771484375,0.8782846331596375,0.054193731397390366,0.33834463357925415
1772514781903623200,9.391623046875,0.8569799661636353,0.006258244160562754,0.34686651825904846
1772514781913669000,9.401669189453125,0.8186315894126892,-0.007589785382151604,0.29680055379867554
1772514781923729000,9.41172900390625,0.7601768970489502,0.011584409512579441,0.19134248793125153
1772514781933776400,9.4217763671875,0.6898715496063232,0.040345702320337296,0.0560578890144825
1772514781943811300,9.431811279296875,0.6174356937408447,0.059519894421100616,-0.08881380409002304
1772514781953857300,9.441857177734375,0.5545869469642639,0.08402025699615479,-0.2175738513469696
1772514781963901700,9.451901611328125,0.49706435203552246,0.11065108329057693,-0.3166405260562897
1772514781973947600,9.46194775390625,0.43315038084983826,0.14473854005336761,-0.3773587942123413
1772514781984003000,9.472003173828124,0.37136685848236084,0.19254086911678314,-0.38481542468070984
1772514781994050000,9.482050048828125,0.32875755429267883,0.2692376375198364,-0.3464670479297638
1772514782004086800,9.492086669921875,0.31597474217414856,0.38428282737731934,-0.2804225981235504
1772514782014132700,9.5021328125,0.32662707567214966,0.5216978788375854,-0.22503048181533813
1772514782024178700,9.5121787109375,0.3575188219547272,0.6378082633018494,-0.20266057550907135
1772514782034224600,9.522224609375,0.3979976773262024,0.7123745679855347,-0.20159535109996796
1772514782044273000,9.53227294921875,0.44486793875694275,0.7581796050071716,-0.20053011178970337
1772514782054319000,9.542319091796875,0.4917382001876831,0.7645710110664368,-0.19094301760196686
1772514782064377300,9.55237744140625,0.5407389402389526,0.7496577501296997,-0.16750788688659668
1772514782074400500,9.562400390625,0.5908048748970032,0.7390053868293762,-0.14314068853855133
1772514782094495200,9.5824951171875,0.6845453977584839,0.716635525226593,-0.15485824644565582
1772514782104559000,9.59255908203125,0.7367417812347412,0.6974613070487976,-0.19200825691223145
1772514782114607900,9.60260791015625,0.7888050675392151,0.6687000393867493,-0.2591179311275482
1772514782124648400,9.6126484375,0.8335448503494263,0.6271559596061707,-0.32835808396339417
1772514782134696200,9.6226962890625,0.8686975240707397,0.5845466256141663,-0.3784240186214447
1772514782144735000,9.63273486328125,0.8889369368553162,0.5291544795036316,-0.4125114977359772
1772514782154782000,9.642781982421875,0.8985240459442139,0.46630576252937317,-0.43807709217071533
1772514782164828700,9.65282861328125,0.9070459008216858,0.4109136462211609,-0.4647079110145569
1772514782174876000,9.6628759765625,0.9240896701812744,0.37256523966789246,-0.4955996572971344
1772514782184919800,9.672919921875,0.9549813866615295,0.35978245735168457,-0.5158390998840332
1772514782194966500,9.682966552734374,0.9880036115646362,0.356586754322052,-0.5115781426429749
1772514782205015600,9.693015625,1.012503981590271,0.3448691964149475,-0.47962117195129395
1772514782215062500,9.7030625,1.0210258960723877,0.31823837757110596,-0.42422905564308167
1772514782225107700,9.713107666015626,1.0167648792266846,0.28521615266799927,-0.36244553327560425
1772514782235154700,9.72315478515625,1.012503981590271,0.24793298542499542,-0.30705341696739197
1772514782245201400,9.733201416015625,1.0178301334381104,0.2074541300535202,-0.2623136341571808
1772514782255248100,9.743248046875,1.022091031074524,0.17017097771167755,-0.22076953947544098
1772514782265294300,9.75329443359375,1.0146344900131226,0.1351514458656311,-0.17709499597549438
1772514782275341000,9.763341064453124,1.002916932106018,0.11171631515026093,-0.11864032596349716
1772514782285394700,9.773394775390624,0.989068865776062,0.08934641629457474,-0.04513924941420555
1772514782295442200,9.783442138671875,0.9688294529914856,0.0723026916384697,0.04220985993742943
1772514782305477600,9.7934775390625,0.9400681257247925,0.06804175674915314,0.13381989300251007
1772514782315523800,9.80352392578125,0.8889369368553162,0.08508548885583878,0.2147776037454605
1772514782325569500,9.813569580078125,0.8282186985015869,0.12343387305736542,0.2680392563343048
1772514782335615700,9.82361572265625,0.7665683031082153,0.15006470680236816,0.28401774168014526
1772514782345666000,9.833666015625,0.7101109623908997,0.15326039493083954,0.27656111121177673
1772514782355712800,9.843712646484375,0.6557840704917908,0.14260807633399963,0.27230018377304077
1772514782365766000,9.853765869140625,0.6025224328041077,0.1149120107293129,0.27230018377304077
1772514782375813000,9.863813232421874,0.5513912439346313,0.07656362652778625,0.28401774168014526
1772514782385858300,9.8738583984375,0.5045210123062134,0.025432437658309937,0.29680055379867554
1772514782395905500,9.883905517578125,0.46617260575294495,-0.022503048181533813,0.30532240867614746
1772514782405948400,9.893948486328124,0.43421560525894165,-0.05232957378029823,0.3010614812374115
1772514782415995100,9.9039951171875,0.3990629315376282,-0.07043853402137756,0.2712349593639374
1772514782426033700,9.91403369140625,0.354323148727417,-0.07043853402137756,0.22116900980472565
1772514782436079400,9.924079345703126,0.30425718426704407,-0.054460037499666214,0.1625811904668808
1772514782446126000,9.9341259765625,0.24566936492919922,-0.025698747485876083,0.10292813926935196
1772514782456172000,9.944172119140624,0.1849510818719864,-0.0011983871227130294,0.04753602296113968
1772514782466217700,9.9542177734375,0.12862688302993774,0.029693370684981346,0.0027962366584688425
1772514782476263700,9.964263671875,0.07749570161104202,0.06484606117010117,-0.014247491955757141
1772514782486310700,9.974310546875,0.0476691760122776,0.10958584398031235,0.004926702938973904
1772514782496356600,9.984356689453126,0.04553871229290962,0.15432563424110413,0.05925358831882477
1772514782506405400,9.9944052734375,0.0689738392829895,0.18295377492904663,0.13488513231277466
1772514782516451800,10.004451904296875,0.1222354918718338,0.18401899933815002,0.2169080674648285
1772514782526506500,10.014506591796875,0.19134248793125153,0.1564560979604721,0.28614822030067444
1772514782536553700,10.0245537109375,0.26377832889556885,0.10745538026094437,0.3404751121997833
1772514782546589400,10.03458935546875,0.32556185126304626,0.026497671380639076,0.3649754524230957
1772514782556635400,10.044635498046874,0.37030163407325745,-0.08535179495811462,0.33834463357925415
1772514782566679600,10.054679443359374,0.40225863456726074,-0.17057043313980103,0.2563216984272003
1772514782576725500,10.0647255859375,0.4310199022293091,-0.1737661361694336,0.1295589655637741
1772514782586773800,10.074773681640625,0.45658549666404724,-0.13435252010822296,-0.008921326138079166
1772514782596819700,10.08481982421875,0.4704335331916809,-0.07150376588106155,-0.12396649271249771
1772514782606867700,10.09486767578125,0.4725640118122101,-0.005459319334477186,-0.2069215178489685
1772514782616914200,10.1049140625,0.47575968503952026,0.050998032093048096,-0.24633513391017914
1772514782626958600,10.11495849609375,0.48854249715805054,0.09467258304357529,-0.2399437427520752
1772514782637004800,10.1250048828125,0.5173037648200989,0.11278154700994492,-0.21118244528770447
1772514782647065900,10.13506591796875,0.5673697590827942,0.11065108329057693,-0.1664426624774933
1772514782657113300,10.14511328125,0.631283700466156,0.0936073511838913,-0.11118369549512863
1772514782667143700,10.155143798828124,0.7037195563316345,0.06484606117010117,-0.04940018057823181
1772514782677189600,10.165189697265625,0.7750901579856873,0.026497671380639076,0.009187635034322739
1772514782687256300,10.17525634765625,0.8218272924423218,-0.00226362026296556,0.06457975506782532
1772514782697304300,10.18530419921875,0.8378057479858398,-0.006524552125483751,0.11784140020608902
1772514782707310800,10.195310791015626,0.820762038230896,0.015845341607928276,0.1508636325597763
1772514782717354800,10.205354736328125,0.7686987519264221,0.07017222791910172,0.15832026302814484
1772514782727406800,10.21540673828125,0.6834801435470581,0.1468690037727356,0.14873315393924713
1772514782737451500,10.225451416015625,0.5812177658081055,0.2276935577392578,0.1412765234708786
1772514782747532800,10.23553271484375,0.48534679412841797,0.3065207898616791,0.16897258162498474
1772514782757581000,10.2455810546875,0.41078048944473267,0.36297816038131714,0.23927797377109528
1772514782767625000,10.255625,0.3660407066345215,0.4002613127231598,0.32662707567214966
1772514782777673000,10.2656728515625,0.3415403366088867,0.4109136462211609,0.40332385897636414
1772514782787719700,10.2757197265625,0.31917044520378113,0.38534805178642273,0.4468652606010437
1772514782797767400,10.285767333984374,0.28721344470977783,0.337412565946579,0.45432189106941223
1772514782807776300,10.2957763671875,0.24247366189956665,0.2905423045158386,0.4278241991996765
1772514782817820200,10.305820068359376,0.18601632118225098,0.2703028917312622,0.37243208289146423
1772514782827901000,10.31590087890625,0.12543119490146637,0.272433340549469,0.28721344470977783
1772514782837948400,10.325948486328125,0.06471290439367294,0.2948032319545746,0.17749445140361786
1772514782847961600,10.335961669921875,0.011451254598796368,0.3342168629169464,0.06031882017850876
1772514782858005800,10.346005859375,-0.025831900537014008,0.36191290616989136,-0.05579157918691635
1772514782868071700,10.35607177734375,-0.04074516147375107,0.37150001525878906,-0.15272778272628784
1772514782878118000,10.366117919921875,-0.03648423030972481,0.3459344208240509,-0.218639075756073
1772514782888178200,10.37617822265625,-0.023701434955000877,0.291607528924942,-0.25485700368881226
1772514782898226000,10.386225830078125,-0.009853405877947807,0.2074541300535202,-0.26657456159591675
1772514782908257000,10.396257080078126,0.021038351580500603,0.10639014840126038,-0.25379177927970886
1772514782918303200,10.40630322265625,0.07536523789167404,0.007323476951569319,-0.23461757600307465
1772514782928359400,10.416359375,0.13714875280857086,-0.07043853402137756,-0.22609570622444153
1772514782938406700,10.42640673828125,0.18708154559135437,-0.11730878800153732,-0.24526990950107574
1772514782948443600,10.436443603515626,0.21264714002609253,-0.11837401986122131,-0.28681400418281555
1772514782958489900,10.44648974609375,0.19666863977909088,-0.06298190355300903,-0.3347494900226593
1772514782968536600,10.45653662109375,0.16058388352394104,0.012649642303586006,-0.37416309118270874
1772514782978582500,10.46658251953125,0.12649641931056976,0.0712374597787857,-0.3986634612083435
1772514782988639500,10.476639404296876,0.09986559301614761,0.09147688746452332,-0.410381019115448
1772514782998686700,10.486686767578124,0.0902784988284111,0.07869409024715424,-0.42422905564308167
1772514783008719600,10.4967197265625,0.09986559301614761,0.045671865344047546,-0.4444684684276581
1772514783018765600,10.506765625,0.12543119490146637,-0.0001331541279796511,-0.46790361404418945
1772514783028813600,10.5168134765625,0.1659100502729416,-0.057655736804008484,-0.49240395426750183
1772514783038859500,10.526859619140625,0.2062557488679886,-0.11624355614185333,-0.516904354095459
1772514783048905500,10.536905517578125,0.24140843749046326,-0.1418091505765915,-0.5222305059432983
1772514783058951700,10.54695166015625,0.26484355330467224,-0.10985215753316879,-0.494534432888031
1772514783068997600,10.55699755859375,0.27336543798446655,-0.04913387447595596,-0.4540555775165558
1772514783079043800,10.5670439453125,0.2712349593639374,0.001997311832383275,-0.4220985770225525
1772514783089090300,10.57709033203125,0.2605826258659363,0.05632419511675835,-0.3901416063308716
1772514783099136500,10.587136474609375,0.24993029236793518,0.10958584398031235,-0.35072797536849976
1772514783109184000,10.59718408203125,0.24993029236793518,0.12236864119768143,-0.3134448230266571
1772514783119230200,10.607230224609374,0.2595174014568329,0.09999874979257584,-0.26550933718681335
1772514783129275000,10.61727490234375,0.27549588680267334,0.060585130006074905,-0.20585627853870392
1772514783139320800,10.62732080078125,0.2989310026168823,0.008388710208237171,-0.15272778272628784
1772514783149368600,10.63736865234375,0.32662707567214966,-0.03954677656292915,-0.11331415921449661
1772514783159414800,10.647414794921875,0.3553883731365204,-0.07043853402137756,-0.08668334037065506
1772514783169461500,10.65746142578125,0.3852148950099945,-0.08002562820911407,-0.06431344151496887
1772514783179507700,10.6675078125,0.41291093826293945,-0.08109086751937866,-0.04513924941420555
1772514783189565400,10.6775654296875,0.43528082966804504,-0.0768299326300621,-0.03448691964149475
1772514783199613000,10.687613037109376,0.4480636417865753,-0.07043853402137756,-0.02489982172846794
1772514783209646300,10.697646240234375,0.45658549666404724,-0.0768299326300621,-0.012117025442421436
1772514783219692300,10.7076923828125,0.4587159752845764,-0.10133028775453568,0.0038614696823060513
1772514783229739300,10.7177392578125,0.4512593448162079,-0.1396786868572235,0.01770949922502041
1772514783239785200,10.72778515625,0.43528082966804504,-0.17589659988880157,0.03049229457974434
1772514783249834500,10.73783447265625,0.41397619247436523,-0.19720126688480377,0.0347532257437706
1772514783259881000,10.747880859375,0.39160630106925964,-0.19720126688480377,0.02090519852936268
1772514783269925400,10.75792529296875,0.37349733710289,-0.19187510013580322,-0.007856093347072601
1772514783279971600,10.7679716796875,0.35858407616615295,-0.18761417269706726,-0.04300878196954727
1772514783290018800,10.778018798828125,0.33834463357925415,-0.1631138026714325,-0.07816147059202194
1772514783300065300,10.788065185546875,0.3095833361148834,-0.1300915777683258,-0.11970555782318115
1772514783310113300,10.79811328125,0.2797568142414093,-0.10772168636322021,-0.1643121987581253
1772514783320159700,10.80815966796875,0.2595174014568329,-0.09280842542648315,-0.19413872063159943
1772514783330205200,10.818205078125,0.24993029236793518,-0.08961272984743118,-0.197334423661232
1772514783340251400,10.82825146484375,0.2467346042394638,-0.0991998240351677,-0.16963836550712585
1772514783350295800,10.8382958984375,0.2563216984272003,-0.09600412845611572,-0.11224892735481262
1772514783360342000,10.848342041015625,0.28614822030067444,-0.06511236727237701,-0.039813082665205
1772514783370404600,10.858404541015625,0.3308880031108856,-0.03209014609456062,0.02090519852936268
1772514783380452400,10.868452392578124,0.3671059310436249,-0.06937330216169357,0.03262276202440262
1772514783390491600,10.87849169921875,0.3852148950099945,-0.15991811454296112,-0.004660394508391619
1772514783400538600,10.88853857421875,0.3852148950099945,-0.25365862250328064,-0.08455286920070648
1772514783410589200,10.898589111328125,0.3639102280139923,-0.33674678206443787,-0.18348638713359833
1772514783420636400,10.908636474609375,0.32875755429267883,-0.38148656487464905,-0.2708354890346527
1772514783430668800,10.918668701171875,0.29786577820777893,-0.36018192768096924,-0.31770575046539307
1772514783440714800,10.92871484375,0.27549588680267334,-0.26218047738075256,-0.2921401560306549
1772514783450761200,10.93876123046875,0.27549588680267334,-0.07896039634943008,-0.1653774231672287
1772514783460807200,10.94880712890625,0.27443066239356995,0.13941237330436707,0.04114462435245514
1772514783470851000,10.95885107421875,0.2776263654232025,0.30758604407310486,0.2669740319252014
1772514783480896800,10.968896728515626,0.30745288729667664,0.39280468225479126,0.45325663685798645
1772514783490926800,10.9789267578125,0.35858407616615295,0.39493513107299805,0.5778889060020447
1772514783500971000,10.988970947265624,0.4171718955039978,0.32143405079841614,0.6449986100196838
1772514783511037400,10.999037353515625,0.46830305457115173,0.19467133283615112,0.666303277015686
1772514783521084000,11.009083984375,0.5013253092765808,0.054193731397390366,0.6631075739860535
1772514783531128800,11.01912890625,0.5109124183654785,-0.07043853402137756,0.6471290588378906
1772514783541175000,11.029175048828124,0.5141080617904663,-0.13861344754695892,0.6375419497489929
1772514783551224000,11.03922412109375,0.5109124183654785,-0.15459194779396057,0.6300853490829468
1772514783561270500,11.0492705078125,0.4928034245967865,-0.1524614691734314,0.6236939430236816
1772514783571313200,11.059313232421875,0.4704335331916809,-0.10985215753316879,0.6258243918418884
1772514783581359400,11.069359375,0.4512593448162079,-0.040612008422613144,0.6247591972351074
1772514783591418600,11.079418701171875,0.4469984173774719,0.016910573467612267,0.6002588272094727
1772514783601466000,11.089466064453125,0.457650750875473,0.033954303711652756,0.5491276383399963
1772514783611499500,11.09949951171875,0.4736292362213135,-0.007589785382151604,0.4809527099132538
1772514783621545700,11.109545654296875,0.47895538806915283,-0.1087869256734848,0.3958672285079956
1772514783631610000,11.119610107421876,0.4736292362213135,-0.23022349178791046,0.31917044520378113
1772514783641658000,11.129658203125,0.4608464241027832,-0.3303554058074951,0.2477998286485672
1772514783651695900,11.13969580078125,0.44273748993873596,-0.3985303044319153,0.16897258162498474
1772514783661742600,11.14974267578125,0.43528082966804504,-0.4059869349002838,0.08481918275356293
1772514783671778000,11.159778076171875,0.43315038084983826,-0.3655080795288086,0.0038614696823060513
1772514783681823700,11.16982373046875,0.4171718955039978,-0.29626792669296265,-0.06857437640428543
1772514783691869400,11.179869384765626,0.3841496706008911,-0.2163754552602768,-0.11544463038444519
1772514783701915100,11.1899150390625,0.33727940917015076,-0.14393961429595947,-0.14314068853855133
1772514783711979000,11.19997900390625,0.28295251727104187,-0.10559122264385223,-0.16231487691402435
1772514783722026500,11.210026611328125,0.24247366189956665,-0.07896039634943008,-0.17389929294586182
1772514783732056600,11.220056640625,0.2254299372434616,-0.037416309118270874,-0.16857312619686127
1772514783742102300,11.230102294921876,0.2275604009628296,0.03288906812667847,-0.13994498550891876
1772514783752149500,11.2401494140625,0.23395180702209473,0.1362166702747345,-0.08987903594970703
1772514783762195500,11.250195556640625,0.23501703143119812,0.24793298542499542,-0.03129122033715248
1772514783772239400,11.2602392578125,0.2275604009628296,0.3342168629169464,0.014513799920678139
1772514783782285300,11.270285400390625,0.20732097327709198,0.375760942697525,0.03901416063308716
1772514783792334800,11.2803349609375,0.18175537884235382,0.4023917615413666,0.05286218971014023
1772514783802381000,11.290381103515625,0.14993155002593994,0.4205007255077362,0.0560578890144825
1772514783812427800,11.300427734375,0.11903978884220123,0.41410934925079346,0.03581846132874489
1772514783822474000,11.310473876953125,0.10519175976514816,0.3778914213180542,-0.013182258233428001
1772514783832519000,11.320518798828125,0.10519175976514816,0.3448691964149475,-0.06324820965528488
1772514783842565000,11.330565185546876,0.11051792651414871,0.333151638507843,-0.10479229688644409
1772514783852595000,11.340594970703124,0.11371362209320068,0.30865126848220825,-0.14953207969665527
1772514783862639400,11.350639404296874,0.12330072373151779,0.2703028917312622,-0.1962691843509674
1772514783872720600,11.360720703125,0.13075734674930573,0.25538963079452515,-0.2282261699438095
1772514783882769000,11.370768798828125,0.12756165862083435,0.2617810070514679,-0.24846559762954712
1772514783892814300,11.380814453125,0.11371362209320068,0.27562904357910156,-0.2719007432460785
1772514783902862300,11.3908623046875,0.09347419440746307,0.2809551954269409,-0.29000967741012573
1772514783912906800,11.40090673828125,0.07323476672172546,0.2948032319545746,-0.27616167068481445
1772514783922954200,11.410954345703125,0.06258244067430496,0.28947708010673523,-0.2516613006591797
1772514783933001200,11.421001220703126,0.06471290439367294,0.2511286735534668,-0.23568280041217804
1772514783943048700,11.431048583984374,0.08708280324935913,0.21384553611278534,-0.23461757600307465
1772514783953090600,11.441090576171876,0.11690932512283325,0.18934516608715057,-0.2399437427520752
1772514783963137500,11.451137451171874,0.14673584699630737,0.1754971444606781,-0.2495308369398117
1772514783973188000,11.46118798828125,0.1765623688697815,0.1744319051504135,-0.23355233669281006
1772514783983235300,11.4712353515625,0.20945143699645996,0.1872147023677826,-0.17816022038459778
1772514783993281300,11.48128125,0.24460414052009583,0.1872147023677826,-0.09413997083902359
1772514784003328300,11.491328369140625,0.2808220684528351,0.18827994167804718,-0.0025299284607172012
1772514784013335000,11.5013349609375,0.3095833361148834,0.19254086911678314,0.07416684925556183
1772514784023378200,11.511378173828126,0.32769230008125305,0.1978670358657837,0.10825430601835251
1772514784033461800,11.521461669921875,0.33940985798835754,0.1978670358657837,0.10612384229898453
1772514784043509000,11.531509033203125,0.3511274456977844,0.20425842702388763,0.10718907415866852
1772514784053538600,11.54153857421875,0.354323148727417,0.20212796330451965,0.12103710323572159
1772514784063583700,11.551583740234374,0.3447360396385193,0.19254086911678314,0.13488513231277466
1772514784073632300,11.56163232421875,0.32875755429267883,0.1765623688697815,0.12849372625350952
1772514784083678000,11.571677978515625,0.3117138147354126,0.15965180099010468,0.1093195378780365
1772514784093725000,11.581724853515626,0.29360485076904297,0.1765623688697815,0.0880148783326149
1772514784103771000,11.59177099609375,0.26484355330467224,0.17975807189941406,0.07949301600456238
1772514784113818600,11.601818603515625,0.2264951765537262,0.14793424308300018,0.10505861043930054
1772514784123864600,11.611864501953125,0.1828206181526184,0.09999874979257584,0.15725502371788025
1772514784133910300,11.62191015625,0.14140968024730682,0.07762885838747025,0.21051667630672455
1772514784143956200,11.631956298828126,0.1126483902335167,0.08828118443489075,0.2467346042394638
1772514784154014000,11.642013916015625,0.1009308323264122,0.12236864119768143,0.2605826258659363
1772514784164061000,11.65206103515625,0.10519175976514816,0.15965180099010468,0.2573869228363037
1772514784174094800,11.6620947265625,0.12436595559120178,0.17975807189941406,0.2509955167770386
1772514784184140500,11.672140625,0.1446053832769394,0.1744319051504135,0.25312599539756775
1772514784194189600,11.682189453125,0.17336668074131012,0.15432563424110413,0.27336543798446655
1772514784204235800,11.69223583984375,0.205190509557724,0.1351514458656311,0.3031919598579407
1772514784214281500,11.702281494140625,0.2382127344608307,0.12449911236763,0.3351489305496216
1772514784224327700,11.71232763671875,0.2712349593639374,0.12236864119768143,0.3564535975456238
1772514784234384600,11.722384521484376,0.29786577820777893,0.07549838721752167,0.35006219148635864
1772514784244432000,11.732431884765624,0.3234313726425171,-0.0011983871227130294,0.30638766288757324
1772514784254475300,11.742475341796874,0.35858407616615295,-0.04593817517161369,0.24566936492919922
1772514784264522000,11.75252197265625,0.396932452917099,-0.06830807030200958,0.1721682846546173
1772514784274560000,11.76256005859375,0.42143282294273376,-0.09067796170711517,0.08908011019229889
1772514784284606000,11.77260595703125,0.4374113082885742,-0.10239552706480026,0.0038614696823060513
1772514784294652400,11.78265234375,0.45445504784584045,-0.09280842542648315,-0.06005251035094261
1772514784304698400,11.792698486328124,0.47682493925094604,-0.060851436108350754,-0.07390054315328598
1772514784314742800,11.80274267578125,0.5066514611244202,-0.0033288532868027687,-0.03448691964149475
1772514784324788700,11.812788818359374,0.547130286693573,0.054193731397390366,0.0454055592417717
1772514784334818800,11.82281884765625,0.5908048748970032,0.06378082931041718,0.13488513231277466
1772514784344863200,11.83286328125,0.6270228028297424,0.009453942999243736,0.21903854608535767
1772514784354930000,11.842929931640626,0.6579145193099976,-0.10133028775453568,0.2925396263599396
1772514784364976400,11.852976318359374,0.6856105923652649,-0.26324570178985596,0.3458012640476227
1772514784375021300,11.863021240234374,0.7015891075134277,-0.4304873049259186,0.38308441638946533
1772514784385067500,11.873067626953125,0.6951977014541626,-0.5613778233528137,0.39373674988746643
1772514784395113700,11.88311376953125,0.6611102223396301,-0.6327484250068665,0.3852148950099945
1772514784405160000,11.893159912109375,0.6014571785926819,-0.5965304970741272,0.38308441638946533
1772514784415221800,11.9032216796875,0.5173037648200989,-0.4708330035209656,0.38947582244873047
1772514784425269500,11.91326953125,0.4193023443222046,-0.3303554058074951,0.38947582244873047
1772514784435300400,11.92330029296875,0.30851811170578003,-0.18122276663780212,0.39054104685783386
1772514784445346300,11.93334619140625,0.1828206181526184,-0.033155377954244614,0.4054543077945709
1772514784455404000,11.943404052734374,0.05512581020593643,0.08934641629457474,0.4288894534111023
1772514784465451300,11.953451171875,-0.05459319427609444,0.16497796773910522,0.43315038084983826
1772514784475486200,11.963486328125,-0.14087706804275513,0.17336668074131012,0.41184571385383606
1772514784485532400,11.973532470703125,-0.20266057550907135,0.15112993121147156,0.37988871335983276
1772514784495579000,11.983578857421875,-0.2399437427520752,0.1149120107293129,0.33621418476104736
1772514784505624800,11.993624755859376,-0.25485700368881226,0.08615072071552277,0.27656111121177673
1772514784515673600,12.003673583984375,-0.2601831555366516,0.08934641629457474,0.205190509557724
1772514784525719800,12.0137197265625,-0.2612484097480774,0.12769481539726257,0.1402112990617752
1772514784535779300,12.023779296875,-0.2527265250682831,0.19999749958515167,0.08694964647293091
1772514784545826800,12.033826904296875,-0.23142187297344208,0.2798899710178375,0.03155753016471863
1772514784555855600,12.043855712890625,-0.19200825691223145,0.34273871779441833,-0.02063889056444168
1772514784565901600,12.053901611328126,-0.13661614060401917,0.37043479084968567,-0.05579157918691635
1772514784575949300,12.06394921875,-0.06737598776817322,0.35126060247421265,-0.06963960826396942
1772514784585995300,12.073995361328125,0.008255556225776672,0.3118469715118408,-0.05259587988257408
1772514784596040000,12.0840400390625,0.07856093347072601,0.2585853040218353,-0.006790860556066036
1772514784606086000,12.0940859375,0.1435401439666748,0.18827994167804718,0.04860125854611397
1772514784616122400,12.104122314453125,0.205190509557724,0.13941237330436707,0.08481918275356293
1772514784626167000,12.1141669921875,0.2563216984272003,0.13089050352573395,0.08588441461324692
1772514784636228900,12.124228759765625,0.29573532938957214,0.15432563424110413,0.06457975506782532
1772514784646275600,12.134275634765626,0.3308880031108856,0.2063889056444168,0.04220985993742943
1772514784656331500,12.14433154296875,0.34899696707725525,0.2628462612628937,0.02090519852936268
1772514784666379000,12.15437890625,0.35858407616615295,0.29906415939331055,0.005991935729980469
1772514784676414200,12.164414306640625,0.37349733710289,0.30865126848220825,-0.012117025442421436
1772514784686460400,12.17446044921875,0.40438908338546753,0.28947708010673523,-0.03342168778181076
1772514784696503800,12.18450390625,0.4491288661956787,0.2628462612628937,-0.06218297779560089
1772514784706549800,12.1945498046875,0.5055862069129944,0.23195448517799377,-0.10266183316707611
1772514784716599000,12.20459912109375,0.5620435476303101,0.21491076052188873,-0.13355359435081482
1772514784726645500,12.2146455078125,0.606783390045166,0.21064983308315277,-0.1463363915681839
1772514784736692200,12.224692138671875,0.6344794034957886,0.21384553611278534,-0.14420592784881592
1772514784746738700,12.23473876953125,0.6579145193099976,0.2383458912372589,-0.12716218829154968
1772514784756794000,12.244794189453126,0.677088737487793,0.2703028917312622,-0.09520520269870758
1772514784766841300,12.25484130859375,0.6951977014541626,0.28947708010673523,-0.06218297779560089
1772514784776873200,12.264873291015626,0.7282199263572693,0.28628137707710266,-0.03022598661482334
1772514784786919200,12.274919189453126,0.7793511152267456,0.25538963079452515,-0.0014646954368799925
1772514784796969500,12.284969482421875,0.8378057479858398,0.19147562980651855,0.02836182899773121
1772514784807015700,12.295015625,0.904915452003479,0.11810771375894547,0.07310161739587784
1772514784817063000,12.30506298828125,0.9645684957504272,0.07336792349815369,0.13701559603214264
1772514784827109400,12.315109375,1.012503981590271,0.06378082931041718,0.20092958211898804
1772514784837167000,12.3251669921875,1.0391348600387573,0.08508548885583878,0.2467346042394638
1772514784847214600,12.335214599609374,1.0540480613708496,0.12130340933799744,0.2616478502750397
1772514784857256200,12.345256103515625,1.0561785697937012,0.16697527468204498,0.2467346042394638
1772514784867303000,12.355302978515626,1.043395757675171,0.19360610842704773,0.22223423421382904
1772514784877338400,12.36533837890625,1.022091031074524,0.1957365721464157,0.20092958211898804
1772514784887384000,12.375384033203124,0.9986559748649597,0.19467133283615112,0.18708154559135437
1772514784897432000,12.38543212890625,0.9762860536575317,0.19360610842704773,0.17536398768424988
1772514784907478000,12.39547802734375,0.9635032415390015,0.19467133283615112,0.16577689349651337
1772514784917525000,12.40552490234375,0.9539161920547485,0.22130216658115387,0.1615159511566162
1772514784927571200,12.4155712890625,0.9475247859954834,0.2713681161403656,0.1529940962791443
1772514784937617200,12.4256171875,0.942198634147644,0.3459344208240509,0.14873315393924713
1772514784947663000,12.4356630859375,0.9379376769065857,0.41410934925079346,0.1615159511566162
