time,seconds_elapsed,z,y,x
1772515160177548800,0.006548828125,0.007732391357421875,-0.00231856107711792,0.10917454957962036
1772515160238794000,0.0677939453125,-0.17270851135253906,0.010321497917175293,-0.06736081838607788
1772515160258883800,0.0878837890625,-0.1478862762451172,0.10057926177978516,-0.02788841724395752
1772515160278941200,0.107941162109375,-0.004231452941894531,-0.0416683554649353,-0.16483089327812195
1772515160289036000,0.1180361328125,0.10073280334472656,-0.04616546630859375,-0.21534126996994019
1772515160299083000,0.1280830078125,0.3192710876464844,-0.000005245208740234375,-0.10473456978797913
1772515160309135000,0.138135009765625,0.29601287841796875,-0.026067256927490234,0.004407107830047607
1772515160319182000,0.14818212890625,0.18227863311767578,0.012862861156463623,0.008915126323699951
1772515160339295200,0.168295166015625,0.056654930114746094,-0.019700348377227783,0.04228532314300537
1772515160349344500,0.178344482421875,-0.049163818359375,-0.007040143013000488,-0.015404760837554932
1772515160359393300,0.188393310546875,-0.12135601043701172,0.0318073034286499,-0.02512449026107788
1772515160369442300,0.1984423828125,-0.23006248474121094,0.01972949504852295,0.006221354007720947
1772515160379485400,0.2084853515625,-0.26584529876708984,0.01932239532470703,0.012766361236572266
1772515160389534000,0.218533935546875,-0.15150833129882812,0.007388472557067871,-0.008565843105316162
1772515160399565800,0.22856591796875,-0.12999248504638672,-0.057237088680267334,-0.05106085538864136
1772515160409612500,0.238612548828125,-0.05543708801269531,-0.02642965316772461,-0.02851724624633789
1772515160419672600,0.248672607421875,0.1522226333618164,-0.0012025833129882812,0.0743359923362732
1772515160429720600,0.258720458984375,0.19086647033691406,-0.023804783821105957,0.1507064700126648
1772515160439755500,0.268755615234375,0.05428791046142578,-0.019389867782592773,0.10105174779891968
1772515160449802500,0.278802490234375,-0.12691402435302734,0.0028243064880371094,0.02571260929107666
1772515160459848400,0.288848388671875,-0.23221206665039062,0.00255429744720459,0.02118539810180664
1772515160469895200,0.298895263671875,-0.16822528839111328,-0.00023424625396728516,0.06161201000213623
1772515160479950000,0.3089501953125,0.07751941680908203,0.0029582977294921875,0.154809832572937
1772515160489997600,0.31899755859375,0.2823038101196289,-0.036248981952667236,0.18564122915267944
1772515160500071200,0.3290712890625,0.39733028411865234,-0.10430949926376343,0.15713155269622803
1772515160510121200,0.339121337890625,0.08824729919433594,-0.007045745849609375,0.4753100872039795
1772515160520130300,0.34913037109375,0.36400604248046875,-0.03455930948257446,-0.10657936334609985
1772515160530176500,0.359176513671875,-0.14777660369873047,-0.00248873233795166,0.07890915870666504
1772515160540263400,0.369263427734375,-0.16106224060058594,-0.017615437507629395,0.22716176509857178
1772515160550313700,0.379313720703125,0.011424064636230469,-0.12351733446121216,0.03485137224197388
1772515160560355300,0.389355224609375,-0.337188720703125,-0.04611748456954956,0.270865797996521
1772515160570404600,0.399404541015625,-0.2481527328491211,0.007961750030517578,0.19995087385177612
1772515160580447500,0.409447509765625,-0.13403701782226562,-0.01578843593597412,-0.018430352210998535
1772515160590496300,0.419496337890625,-0.051117897033691406,0.013875842094421387,0.02471303939819336
1772515160600543000,0.42954296875,-0.0450286865234375,0.0434948205947876,0.21991711854934692
1772515160610591500,0.439591552734375,-0.029794692993164062,0.05422055721282959,0.23710018396377563
1772515160620612000,0.449612060546875,-0.10372543334960938,0.04630088806152344,0.16514241695404053
1772515160630657800,0.45965771484375,-0.12461566925048828,-0.06324821710586548,-0.0035248994827270508
1772515160640733400,0.4697333984375,-0.037627220153808594,-0.09873634576797485,-0.1641036868095398
1772515160650782200,0.4797822265625,0.10819721221923828,-0.06736713647842407,-0.18616247177124023
1772515160660828000,0.489827880859375,0.32116127014160156,-0.009404540061950684,-0.10023969411849976
1772515160670876400,0.49987646484375,0.4267768859863281,0.0024106502532958984,-0.04275035858154297
1772515160680921600,0.509921630859375,0.3665952682495117,0.019490718841552734,-0.06433522701263428
1772515160690969900,0.519969970703125,0.1767578125,-0.022912800312042236,-0.08883321285247803
1772515160701012700,0.5300126953125,-0.046619415283203125,-0.10764652490615845,-0.14943522214889526
1772515160711060200,0.540060302734375,-0.2985668182373047,-0.10523658990859985,-0.06728947162628174
1772515160721090800,0.5500908203125,-0.4192342758178711,-0.04885655641555786,0.08877098560333252
1772515160731136500,0.560136474609375,-0.4112873077392578,0.00003445148468017578,0.15761995315551758
1772515160741196800,0.57019677734375,-0.2958412170410156,0.022080183029174805,0.183099627494812
1772515160751244000,0.580244140625,-0.1640157699584961,0.02614462375640869,0.17118096351623535
1772515160761280800,0.59028076171875,-0.110015869140625,-0.01165771484375,0.14204621315002441
1772515160771327000,0.600326904296875,-0.08550834655761719,-0.08557552099227905,0.036024630069732666
1772515160781375000,0.610375,0.02757549285888672,-0.14291483163833618,-0.08383429050445557
1772515160791421400,0.62042138671875,0.034958839416503906,-0.11394006013870239,-0.1051214337348938
1772515160801478400,0.630478515625,-0.009632110595703125,-0.02400153875350952,-0.10154449939727783
1772515160811526000,0.64052587890625,-0.03462409973144531,0.03193926811218262,-0.11289656162261963
1772515160821563400,0.6505634765625,0.011499404907226562,0.06396901607513428,-0.05965220928192139
1772515160831609900,0.66060986328125,0.09460163116455078,0.06787258386611938,-0.04211992025375366
1772515160841655600,0.670655517578125,0.27069568634033203,0.08988004922866821,-0.0361485481262207
1772515160851702000,0.680701904296875,0.40182018280029297,0.06674855947494507,-0.09289813041687012
1772515160861751300,0.690751220703125,0.3898582458496094,0.012852907180786133,-0.126167893409729
1772515160871798000,0.700798095703125,0.3124513626098633,0.008985757827758789,-0.04604458808898926
1772515160881859000,0.710859130859375,0.18471431732177734,0.007994115352630615,0.06589049100875854
1772515160891907300,0.7209072265625,0.0026960372924804688,0.03914886713027954,0.20404696464538574
1772515160901938400,0.7309384765625,0.0027303695678710938,0.06010997295379639,0.3200461268424988
1772515160911985000,0.74098486328125,0.04526710510253906,0.05608469247817993,0.3208349347114563
1772515160922032400,0.751032470703125,-0.030549049377441406,0.032272934913635254,0.14315563440322876
1772515160932079000,0.7610791015625,-0.1569042205810547,-0.0007058382034301758,-0.05002427101135254
1772515160942125800,0.771125732421875,-0.22477149963378906,-0.00843125581741333,-0.13156571984291077
1772515160952172500,0.781172607421875,-0.18338394165039062,0.028258860111236572,-0.1696229875087738
1772515160962221300,0.79122119140625,-0.0062408447265625,0.041991472244262695,-0.10840731859207153
1772515160972268300,0.801268310546875,0.18680381774902344,0.0032309293746948242,-0.061886489391326904
1772515160982316300,0.81131640625,0.19305896759033203,-0.017965495586395264,-0.07533222436904907
1772515160992363300,0.82136328125,0.06271839141845703,-0.0027236342430114746,-0.09630250930786133
1772515161002409200,0.8314091796875,-0.0513458251953125,0.030927598476409912,-0.03141629695892334
1772515161012456000,0.8414560546875,-0.03174400329589844,0.060143113136291504,0.10296529531478882
1772515161022505700,0.851505615234375,0.11938095092773438,0.04194748401641846,0.23947608470916748
1772515161032553000,0.861552978515625,0.23040008544921875,0.04620480537414551,0.3041307330131531
1772515161042612000,0.871612060546875,0.1655101776123047,0.014979660511016846,0.2186722755432129
1772515161052660200,0.88166015625,-0.025295257568359375,-0.012509346008300781,0.003350973129272461
1772515161062705200,0.891705078125,-0.20823955535888672,-0.048158466815948486,-0.08193382620811462
1772515161072753200,0.901753173828125,-0.3034830093383789,-0.033882319927215576,-0.05485370755195618
1772515161082801200,0.91180126953125,-0.241912841796875,-0.01739269495010376,0.04543811082839966
1772515161092849200,0.92184912109375,-0.03549385070800781,0.01945507526397705,0.11411887407302856
1772515161102880500,0.931880615234375,0.19583702087402344,0.03182411193847656,0.11456835269927979
1772515161112927000,0.941927001953125,0.23048114776611328,0.03722655773162842,0.1338244080543518
1772515161122986800,0.95198681640625,0.08112812042236328,0.049607157707214355,0.08750277757644653
1772515161133034500,0.962034423828125,-0.11746025085449219,0.03282797336578369,-0.08496734499931335
1772515161143069000,0.97206884765625,-0.1998147964477539,0.01748955249786377,-0.17520856857299805
1772515161153115100,0.982115234375,-0.24332523345947266,0.009183287620544434,-0.15135782957077026
1772515161163167000,0.9921669921875,-0.2157611846923828,0.01771414279937744,-0.13263309001922607
1772515161173214000,1.0022138671875,-0.11827373504638672,0.014046072959899902,-0.05733808875083923
1772515161183259000,1.0122587890625,-0.046047210693359375,0.05376267433166504,0.0023871660232543945
1772515161193305300,1.022305419921875,0.05329418182373047,0.0787353515625,-0.015512049198150635
1772515161203353300,1.032353271484375,0.21239280700683594,0.07418656349182129,0.002550661563873291
1772515161213400300,1.042400390625,0.25136661529541016,0.06304717063903809,0.01510310173034668
1772515161223448600,1.052448486328125,0.1721477508544922,0.06915271282196045,-0.009787797927856445
1772515161233495600,1.06249560546875,0.10384273529052734,0.06897401809692383,-0.029824286699295044
1772515161243555300,1.072555419921875,0.08856868743896484,0.049086928367614746,-0.025954455137252808
1772515161253603600,1.082603515625,0.05947685241699219,0.024241328239440918,0.011077284812927246
1772515161263635500,1.092635498046875,-0.011449813842773438,0.013236641883850098,0.05261117219924927
1772515161273682000,1.102681884765625,-0.05297565460205078,-0.0022221803665161133,0.07986998558044434
1772515161283742000,1.112741943359375,-0.023305892944335938,-0.002616286277770996,0.14057070016860962
1772515161293790000,1.1227900390625,-0.008349418640136719,-0.012251973152160645,0.1545560359954834
1772515161303822800,1.13282275390625,-0.054901123046875,-0.0030406713485717773,0.13185173273086548
1772515161313869300,1.142869384765625,-0.07246208190917969,0.010959506034851074,0.11446386575698853
1772515161323933400,1.152933349609375,-0.09920787811279297,0.015966296195983887,0.1254013180732727
1772515161333981400,1.1629814453125,-0.13027477264404297,0.02158331871032715,0.1828688383102417
1772515161344022500,1.1730224609375,-0.15617847442626953,0.023254990577697754,0.15402311086654663
1772515161354070000,1.183070068359375,-0.14409351348876953,0.016629576683044434,0.1017308235168457
1772515161364105200,1.193105224609375,-0.07580852508544922,-0.017071127891540527,0.031053543090820312
1772515161374151700,1.203151611328125,0.03367424011230469,-0.035477399826049805,-0.0059972405433654785
1772515161384198700,1.21319873046875,0.08014583587646484,-0.025815725326538086,0.0193597674369812
1772515161394245000,1.2232451171875,0.050566673278808594,-0.03134894371032715,0.0027312040328979492
1772515161404295400,1.23329541015625,-0.04915618896484375,-0.04169940948486328,-0.05539396405220032
1772515161414342100,1.243342041015625,-0.12848949432373047,-0.046538472175598145,-0.03657039999961853
1772515161424383500,1.253383544921875,-0.07947444915771484,-0.017200946807861328,-0.004408597946166992
1772515161434429700,1.2634296875,0.0675497055053711,0.012471318244934082,0.073555588722229
1772515161444483000,1.273483154296875,0.18866825103759766,0.012674570083618164,0.12191730737686157
1772515161454529800,1.28352978515625,0.15726470947265625,0.011126279830932617,0.10885566473007202
1772515161464577300,1.293577392578125,0.051171302795410156,-0.0009599924087524414,0.05382949113845825
1772515161474624300,1.303624267578125,-0.024857521057128906,-0.008257269859313965,0.013291478157043457
1772515161484670200,1.313670166015625,-0.09494781494140625,-0.03847825527191162,-0.050503551959991455
1772515161494717200,1.32371728515625,-0.1215658187866211,-0.0578535795211792,-0.07621553540229797
1772515161504763600,1.333763671875,-0.11488723754882812,-0.04289507865905762,-0.007634013891220093
1772515161514810400,1.343810302734375,-0.10373115539550781,-0.0226593017578125,0.046144723892211914
1772515161524860700,1.353860595703125,-0.09282684326171875,0.007032275199890137,0.06652721762657166
1772515161534908000,1.363907958984375,-0.035079002380371094,0.013267040252685547,-0.0077567994594573975
1772515161544967700,1.3739677734375,0.040513038635253906,-0.013369202613830566,-0.061842143535614014
1772515161555016000,1.384015869140625,0.0818939208984375,-0.016104936599731445,-0.05375182628631592
1772515161565053200,1.39405322265625,0.13205623626708984,-0.0098649263381958,-0.008064866065979004
1772515161575100700,1.4041005859375,0.1626720428466797,0.009294986724853516,0.055798232555389404
1772515161585154600,1.414154541015625,0.12229442596435547,0.003358125686645508,0.06206578016281128
1772515161595202600,1.42420263671875,0.021491050720214844,0.015527129173278809,0.053759247064590454
1772515161605237200,1.4342373046875,-0.04462146759033203,0.013255119323730469,0.01657027006149292
1772515161615284000,1.444283935546875,-0.11433029174804688,0.011315226554870605,-0.020888328552246094
1772515161625331000,1.4543310546875,-0.14527606964111328,-0.0037043094635009766,-0.06816643476486206
1772515161635377700,1.464377685546875,-0.06750297546386719,0.02031874656677246,-0.0165250301361084
1772515161645436700,1.474436767578125,-0.02404022216796875,0.02090597152709961,0.0011818110942840576
1772515161655484700,1.484484619140625,0.023357391357421875,0.017069339752197266,0.009490489959716797
1772515161665522400,1.4945224609375,0.1029367446899414,0.04124116897583008,0.07938611507415771
1772515161675569400,1.5045693359375,0.11533260345458984,0.012082576751708984,0.04590177536010742
1772515161685649700,1.514649658203125,0.08991050720214844,-0.01763737201690674,-0.06576511263847351
1772515161695700000,1.524699951171875,-0.015110969543457031,-0.019197940826416016,-0.14634427428245544
1772515161705709300,1.534709228515625,-0.16553497314453125,-0.010747313499450684,-0.1031096875667572
1772515161715755500,1.544755615234375,-0.13931655883789062,0.01763617992401123,-0.04304862022399902
1772515161725815800,1.55481591796875,0.03241443634033203,0.027530789375305176,-0.02800619602203369
1772515161735863300,1.56486328125,0.10714530944824219,0.01352548599243164,-0.013438969850540161
1772515161745915000,1.574914794921875,0.006489753723144531,0.017694473266601562,-0.00795292854309082
1772515161755963000,1.584962890625,-0.0831146240234375,0.04083895683288574,0.007236570119857788
1772515161766009300,1.59500927734375,0.08304214477539062,0.05447685718536377,-0.016286879777908325
1772515161776057000,1.60505712890625,0.20885276794433594,0.02481710910797119,-0.011390864849090576
1772515161786102300,1.615102294921875,0.15380287170410156,-0.0015416145324707031,0.004133701324462891
1772515161796149800,1.625149658203125,-0.04154014587402344,-0.004717707633972168,-0.007859110832214355
1772515161806192400,1.6351923828125,-0.12067127227783203,-0.012150764465332031,-0.03366672992706299
1772515161816239600,1.645239501953125,-0.043128013610839844,-0.028266072273254395,0.0012409389019012451
1772515161826287400,1.655287353515625,0.014271736145019531,-0.043811678886413574,0.00691378116607666
1772515161836334600,1.66533447265625,-0.023447036743164062,-0.04497218132019043,-0.015960276126861572
1772515161846382600,1.675382568359375,-0.06528377532958984,-0.017455577850341797,-0.01041412353515625
1772515161856429800,1.685429931640625,-0.03586864471435547,0.0008879899978637695,0.004256010055541992
1772515161866479600,1.695479736328125,-0.039916038513183594,-0.013924717903137207,0.018657773733139038
1772515161876527000,1.705527099609375,0.0031595230102539062,-0.009560465812683105,0.056775689125061035
1772515161886546000,1.7155458984375,0.11616134643554688,-0.010413289070129395,0.12801194190979004
1772515161896590600,1.725590576171875,0.08605098724365234,-0.012199640274047852,0.157501220703125
1772515161906665000,1.7356650390625,0.009401321411132812,-0.02423560619354248,0.07003426551818848
1772515161916712400,1.74571240234375,0.009380340576171875,-0.04088997840881348,-0.03477269411087036
1772515161926741200,1.7557412109375,0.03767204284667969,-0.07175874710083008,-0.0769016444683075
1772515161936787000,1.765786865234375,-0.07108020782470703,-0.0644078254699707,-0.04719778895378113
1772515161946836500,1.77583642578125,-0.1404438018798828,-0.04691898822784424,0.014863908290863037
1772515161956882700,1.785882568359375,-0.14285755157470703,0.004352569580078125,0.11343279480934143
1772515161966931200,1.79593115234375,-0.14534282684326172,0.041629791259765625,0.14899501204490662
1772515161976977700,1.805977783203125,-0.08196258544921875,0.02715444564819336,0.09490913152694702
1772515161987010000,1.816010009765625,0.0038166046142578125,-0.014651656150817871,0.03246065974235535
1772515161997055000,1.826054931640625,0.031653404235839844,-0.02279829978942871,-0.038057178258895874
1772515162007120400,1.836120361328125,0.030773162841796875,-0.021254301071166992,-0.0982692539691925
1772515162017167400,1.84616748046875,0.19944190979003906,-0.024303913116455078,-0.0783638060092926
1772515162027216400,1.85621630859375,0.25717735290527344,0.0042983293533325195,0.011608034372329712
1772515162037263400,1.866263427734375,0.21063995361328125,0.04417276382446289,0.08616027235984802
1772515162047310800,1.876310791015625,0.028509140014648438,0.048722028732299805,0.051851898431777954
1772515162057357800,1.88635791015625,-0.1647014617919922,0.02473437786102295,-0.0001933574676513672
1772515162067403800,1.89640380859375,-0.2135772705078125,-0.020870089530944824,-0.06175580620765686
1772515162077451000,1.906450927734375,-0.03578472137451172,-0.0592731237411499,-0.02941158413887024
1772515162087492600,1.91649267578125,0.1766958236694336,-0.07777798175811768,0.029767751693725586
1772515162097539300,1.926539306640625,0.20684337615966797,-0.09237468242645264,0.026763200759887695
1772515162107592400,1.936592529296875,0.23199939727783203,-0.1083378791809082,0.018499404191970825
1772515162117639700,1.9466396484375,0.11568546295166016,-0.13495445251464844,0.014466047286987305
1772515162127644000,1.956643798828125,-0.05983257293701172,-0.1472703218460083,0.00014084577560424805
1772515162137718000,1.966718017578125,-0.1477193832397461,-0.13495147228240967,0.04099687933921814
1772515162147739000,1.97673876953125,-0.14480209350585938,-0.12611567974090576,0.1363687813282013
1772515162157810700,1.986810791015625,-0.08085155487060547,-0.08319723606109619,0.1918509602546692
1772515162167857700,1.996857666015625,-0.03688621520996094,-0.05445826053619385,0.15239354968070984
1772515162197976800,2.026976806640625,0.07439136505126953,-0.1281299591064453,-0.045295536518096924
1772515162208061000,2.03706103515625,-0.01609039306640625,-0.12217104434967041,-0.07554295659065247
1772515162218111000,2.047111083984375,-0.048552513122558594,-0.06456887722015381,-0.015848219394683838
1772515162228150000,2.05714990234375,-0.014598846435546875,-0.016933083534240723,0.08510741591453552
1772515162238199000,2.067198974609375,0.042349815368652344,0.0015316009521484375,0.16080811619758606
1772515162248223000,2.077222900390625,-0.005267143249511719,-0.01320350170135498,0.1557067632675171
1772515162258271700,2.087271728515625,-0.04272270202636719,-0.003980875015258789,0.09486973285675049
1772515162268338700,2.097338623046875,-0.027756690979003906,0.024109244346618652,0.04389449954032898
1772515162278389000,2.107388916015625,-0.02713489532470703,0.018775463104248047,0.054269611835479736
1772515162288430000,2.11743017578125,-0.08771896362304688,0.013643860816955566,0.0308760404586792
1772515162298479600,2.127479736328125,-0.11905384063720703,0.027842044830322266,-0.025917530059814453
1772515162308530700,2.13753076171875,-0.06044483184814453,0.04263317584991455,-0.059499263763427734
1772515162318580200,2.147580322265625,0.04430961608886719,0.07615351676940918,-0.08421644568443298
1772515162328583400,2.15758349609375,0.10029029846191406,0.07580125331878662,-0.09459927678108215
1772515162338658000,2.167657958984375,0.08946704864501953,0.04635763168334961,-0.07533678412437439
1772515162358757000,2.187757080078125,-0.12798118591308594,0.07561218738555908,-0.12896639108657837
1772515162368769500,2.19776953125,-0.21041011810302734,0.05073094367980957,-0.14003896713256836
1772515162378819000,2.207819091796875,-0.1833486557006836,0.032239556312561035,-0.08447873592376709
1772515162388899000,2.217899169921875,-0.0533294677734375,0.010266900062561035,0.032741934061050415
1772515162398951200,2.227951171875,0.06503963470458984,0.007250785827636719,0.10764235258102417
1772515162408988200,2.23798828125,0.10136985778808594,-0.01531529426574707,0.11302942037582397
1772515162419039000,2.2480390625,0.09476089477539062,-0.019635558128356934,0.09164386987686157
1772515162429086500,2.25808642578125,0.036545753479003906,-0.005991816520690918,0.1655866801738739
1772515162439136800,2.26813671875,0.021744728088378906,-0.016582727432250977,0.2240319848060608
1772515162449178600,2.2781787109375,0.021378517150878906,-0.018065810203552246,0.20137429237365723
1772515162459228200,2.288228271484375,-0.0636911392211914,-0.01510322093963623,0.22129637002944946
1772515162469275400,2.298275390625,-0.18036365509033203,0.002667665481567383,0.17434805631637573
1772515162479324700,2.30832470703125,-0.25289154052734375,0.021985888481140137,0.05180233716964722
1772515162489364200,2.3183642578125,-0.12664031982421875,0.0007789134979248047,-0.01853880286216736
1772515162499412500,2.32841259765625,0.07748603820800781,-0.01907038688659668,0.02880418300628662
1772515162509457700,2.338457763671875,0.25472354888916016,-0.02489769458770752,0.08946755528450012
1772515162519505400,2.34850537109375,0.3679685592651367,-0.0324779748916626,0.09373980760574341
1772515162529553200,2.35855322265625,0.24408912658691406,-0.04228067398071289,0.038745105266571045
1772515162539601200,2.36860107421875,0.009417533874511719,-0.03450775146484375,-0.019488900899887085
1772515162549660700,2.37866064453125,-0.12717533111572266,-0.04548311233520508,-0.05364254117012024
1772515162559709700,2.388709716796875,-0.09207344055175781,-0.03168177604675293,-0.03154003620147705
1772515162569748500,2.39874853515625,-0.0010786056518554688,-0.02238297462463379,-0.005686908960342407
1772515162579796700,2.408796630859375,-0.06703376770019531,-0.013215303421020508,-0.012180805206298828
1772515162589873400,2.418873291015625,-0.21205711364746094,-0.01288604736328125,-0.017827630043029785
1772515162599924500,2.428924560546875,-0.30779075622558594,-0.03448939323425293,-0.004180014133453369
1772515162609963800,2.4389638671875,-0.27981090545654297,-0.03928196430206299,0.028606414794921875
1772515162620013600,2.449013671875,-0.15836620330810547,-0.037351250648498535,0.06107446551322937
1772515162630057000,2.459056884765625,0.055151939392089844,-0.05368983745574951,0.0837780237197876
1772515162640106000,2.46910595703125,0.19457626342773438,-0.028195619583129883,0.05457025766372681
1772515162650150100,2.479150146484375,0.30356502532958984,-0.06105625629425049,0.09734871983528137
1772515162660198700,2.48919873046875,0.2649679183959961,-0.08127188682556152,0.10764476656913757
1772515162670248700,2.499248779296875,0.118865966796875,-0.08856713771820068,0.08102533221244812
1772515162680297500,2.50929736328125,-0.057740211486816406,-0.11028742790222168,0.09339219331741333
1772515162690346200,2.51934619140625,-0.2079763412475586,-0.09781646728515625,0.10136198997497559
1772515162700395000,2.52939501953125,-0.24294090270996094,-0.06945717334747314,0.09549838304519653
1772515162710436000,2.53943603515625,-0.2163715362548828,-0.05332028865814209,0.037727177143096924
1772515162720484000,2.549484130859375,-0.17633342742919922,-0.04466676712036133,0.01782819628715515
1772515162730536700,2.55953662109375,-0.07590484619140625,-0.0013915300369262695,-0.0075241923332214355
1772515162740585000,2.5695849609375,0.013319015502929688,0.023930072784423828,-0.04336729645729065
1772515162750626600,2.57962646484375,0.15285491943359375,0.05394470691680908,-0.032456666231155396
1772515162760674300,2.58967431640625,0.2854948043823242,0.08719015121459961,0.0250280499458313
1772515162770721500,2.599721435546875,0.3219938278198242,0.12239336967468262,0.011320322751998901
1772515162780769000,2.60976904296875,0.22635459899902344,0.1401839256286621,-0.0681820958852768
1772515162790812200,2.619812255859375,0.19379234313964844,0.16039395332336426,-0.1007162481546402
1772515162800859400,2.629859375,0.1102142333984375,0.11727368831634521,-0.11975207924842834
1772515162810903000,2.639903076171875,0.01399993896484375,0.07419800758361816,-0.1909569352865219
1772515162820950000,2.649949951171875,-0.0522918701171875,0.08338761329650879,-0.2010457068681717
1772515162830985200,2.659985107421875,-0.08923149108886719,0.09728991985321045,-0.09836064279079437
1772515162841031000,2.670031005859375,0.029813766479492188,0.12049579620361328,0.04974478483200073
1772515162851078400,2.680078369140625,0.19406986236572266,0.11854732036590576,0.08795583248138428
1772515162861124400,2.690124267578125,0.30402469635009766,0.08123648166656494,0.03735324740409851
1772515162871175400,2.700175537109375,0.22880268096923828,0.05083131790161133,-0.015151053667068481
1772515162881222000,2.710221923828125,-0.04277992248535156,0.02373981475830078,-0.0266130268573761
1772515162891270000,2.720269775390625,-0.19689464569091797,0.020846843719482422,-0.026537075638771057
1772515162901316400,2.73031640625,-0.22613048553466797,0.03294086456298828,-0.001599639654159546
1772515162911361800,2.74036181640625,-0.2456197738647461,0.03643083572387695,0.08645708858966827
1772515162921408300,2.750408203125,-0.17075252532958984,0.06440412998199463,0.1089155375957489
1772515162931458800,2.760458740234375,-0.10654449462890625,0.06855988502502441,0.08371086418628693
1772515162941505800,2.770505859375,-0.06690406799316406,0.05380988121032715,0.057798728346824646
1772515162951550700,2.78055078125,-0.06559944152832031,0.02558588981628418,0.031260937452316284
1772515162961597400,2.790597412109375,-0.05965995788574219,-0.010870933532714844,-0.019176676869392395
1772515162971646200,2.800646240234375,0.007287025451660156,-0.02686285972595215,-0.017022699117660522
1772515162981693200,2.810693115234375,0.021337509155273438,-0.00019085407257080078,0.01328742504119873
1772515162991738400,2.82073828125,0.011636734008789062,0.01662766933441162,0.018657788634300232
1772515163001785000,2.83078515625,0.06797981262207031,-0.04627394676208496,-0.015197671949863434
1772515163011846000,2.840845947265625,0.1280355453491211,-0.055612921714782715,0.030079618096351624
1772515163021894100,2.85089404296875,0.1447734832763672,-0.017992258071899414,0.11534593999385834
1772515163031929000,2.86092919921875,0.1425485610961914,0.008483529090881348,0.15069448947906494
1772515163041975800,2.870975830078125,-0.0007791519165039062,0.005454897880554199,0.10385489463806152
1772515163052023600,2.8810234375,-0.12290573120117188,-0.006539702415466309,-0.019437149167060852
1772515163062070500,2.891070556640625,-0.2101755142211914,-0.012203574180603027,-0.06757701933383942
1772515163072118300,2.9011181640625,-0.29154300689697266,-0.04369831085205078,-0.06907626986503601
1772515163082165200,2.911165283203125,-0.4189929962158203,-0.06693565845489502,-0.03310118615627289
1772515163092211000,2.9212109375,-0.4836111068725586,-0.07133543491363525,-0.06848523020744324
1772515163102258000,2.9312578125,-0.2321643829345703,-0.03366410732269287,-0.056594543159008026
1772515163112304400,2.941304443359375,0.052573204040527344,-0.004213452339172363,0.020921319723129272
1772515163122351000,2.95135107421875,0.1490163803100586,-0.00879514217376709,0.1539236307144165
1772515163132401200,2.961401123046875,0.21104145050048828,0.03248918056488037,0.15880322456359863
1772515163142448000,2.9714482421875,0.286376953125,0.028694868087768555,0.17439089715480804
1772515163152479000,2.98147900390625,0.33260250091552734,0.04497885704040527,0.3121982514858246
1772515163162524400,2.9915244140625,0.6939830780029297,-0.022898554801940918,0.45548945665359497
1772515163172586800,3.001586669921875,0.5274057388305664,-0.06357651948928833,-0.2679864168167114
1772515163182634000,3.011634033203125,-0.16344356536865234,0.12358057498931885,-0.31562769412994385
1772515163192684500,3.0216845703125,-0.3014364242553711,0.012842774391174316,-0.15846943855285645
1772515163202732000,3.03173193359375,-0.25844860076904297,-0.018066883087158203,-0.025560446083545685
1772515163212788000,3.0417880859375,-0.239959716796875,0.04313087463378906,0.07717195153236389
1772515163222836500,3.05183642578125,-0.13718605041503906,0.09530031681060791,0.15024340152740479
1772515163232870400,3.061870361328125,-0.012698173522949219,0.11472737789154053,0.14186258614063263
1772515163242917400,3.07191748046875,0.06259632110595703,0.07300817966461182,0.0812334269285202
1772515163252973000,3.08197314453125,0.1696491241455078,0.07876479625701904,0.020551279187202454
1772515163263020800,3.092020751953125,0.23738574981689453,0.08341944217681885,0.006560131907463074
1772515163273059000,3.10205908203125,0.31365299224853516,0.08138048648834229,0.024145543575286865
1772515163283105800,3.112105712890625,0.39835166931152344,0.09589183330535889,0.05897773802280426
1772515163293166600,3.12216650390625,0.30782127380371094,0.09259414672851562,0.08333763480186462
1772515163303214800,3.13221484375,0.14848709106445312,0.10556411743164062,0.04572741687297821
1772515163313246000,3.142245849609375,-0.01743030548095703,0.060515522956848145,-0.01064765453338623
1772515163323292400,3.15229248046875,-0.17579174041748047,0.025220394134521484,-0.0384596586227417
1772515163333342700,3.1623427734375,-0.185638427734375,0.001046895980834961,-0.047713786363601685
1772515163343389700,3.1723896484375,-0.12953662872314453,-0.011874079704284668,0.003932103514671326
1772515163353442000,3.182442138671875,-0.10739612579345703,-0.028676748275756836,0.031638920307159424
1772515163363489500,3.192489501953125,-0.10453033447265625,-0.04929947853088379,0.03125455975532532
1772515163373571600,3.202571533203125,-0.049981117248535156,-0.11147725582122803,0.05041125416755676
1772515163383622400,3.212622314453125,-0.05760478973388672,-0.13021886348724365,0.05255362391471863
1772515163393638000,3.222637939453125,-0.18762493133544922,-0.12010347843170166,0.04299500584602356
1772515163403685400,3.232685302734375,-0.30166053771972656,-0.1412813663482666,0.027211129665374756
1772515163413733000,3.242733154296875,-0.4283428192138672,-0.1782713532447815,0.029212236404418945
1772515163423780400,3.2527802734375,-0.4969320297241211,-0.15445619821548462,0.019681096076965332
1772515163433812700,3.262812744140625,-0.49424171447753906,-0.11313033103942871,0.025905996561050415
1772515163443858700,3.272858642578125,-0.33662986755371094,-0.11137509346008301,0.037107110023498535
1772515163453914600,3.28291455078125,-0.1207284927368164,-0.09302210807800293,0.09586474299430847
1772515163463961600,3.292961669921875,0.06319141387939453,-0.03622794151306152,0.14057233929634094
1772515163474003500,3.30300341796875,0.19707679748535156,0.004671454429626465,0.048077672719955444
1772515163484050000,3.3130498046875,0.2866191864013672,0.03818690776824951,-0.02941766381263733
1772515163494096600,3.3230966796875,0.3231649398803711,0.07828056812286377,-0.016818195581436157
1772515163504143000,3.33314306640625,0.27938079833984375,0.06321310997009277,-0.004930377006530762
1772515163514201600,3.34320166015625,0.1565084457397461,0.051212430000305176,-0.07849982380867004
1772515163524249300,3.353249267578125,0.07816886901855469,0.0669788122177124,-0.10955505073070526
1772515163534284500,3.363284423828125,0.04353904724121094,0.05886662006378174,-0.0890408605337143
1772515163544330800,3.373330810546875,0.07074928283691406,0.05061936378479004,-0.10266104340553284
1772515163554382800,3.3833828125,0.1399517059326172,0.046741366386413574,-0.08371734619140625
1772515163564429800,3.393429931640625,0.15635108947753906,0.013493180274963379,-0.0986756756901741
1772515163574471400,3.403471435546875,0.08315181732177734,-0.0015369653701782227,-0.14203859865665436
1772515163584517600,3.413517578125,0.030055999755859375,0.02098715305328369,-0.12859871983528137
1772515163594585900,3.4235859375,0.04852008819580078,0.038155317306518555,-0.07380838692188263
1772515163604634600,3.433634521484375,0.047875404357910156,0.012387514114379883,-0.03422750532627106
1772515163614671400,3.44367138671875,0.06139564514160156,-0.027355551719665527,-0.02800099551677704
1772515163624718800,3.45371875,-0.014760971069335938,-0.028945088386535645,0.006808236241340637
1772515163634754800,3.4637548828125,-0.08497428894042969,-0.006642937660217285,0.041011229157447815
1772515163644801300,3.47380126953125,-0.1022796630859375,0.006484389305114746,0.06454454362392426
1772515163654839600,3.483839599609375,-0.12406063079833984,-0.017665863037109375,0.06811255216598511
1772515163664885000,3.493885009765625,-0.17853927612304688,-0.04521489143371582,0.04796631634235382
1772515163674953200,3.503953125,-0.18047142028808594,-0.042641520500183105,0.06572519242763519
1772515163685001000,3.5140009765625,-0.18252849578857422,-0.029290318489074707,0.07858376204967499
1772515163695038000,3.524037841796875,-0.123504638671875,-0.019379019737243652,0.0911993682384491
1772515163705084700,3.534084716796875,-0.0373992919921875,-0.03619253635406494,0.0990239679813385
1772515163715132200,3.544132080078125,0.09428787231445312,-0.0568506121635437,0.13549938797950745
1772515163725179000,3.554178955078125,0.2332754135131836,-0.04492741823196411,0.1575796902179718
1772515163735227600,3.5642275390625,0.15352153778076172,-0.049066364765167236,0.1757892370223999
1772515163745274600,3.574274658203125,-0.08018875122070312,-0.0542716383934021,0.15270009636878967
1772515163755321600,3.584321533203125,-0.31009483337402344,-0.03506284952163696,0.11167220771312714
1772515163765368600,3.59436865234375,-0.3810396194458008,-0.013480901718139648,0.09796759486198425
1772515163775428600,3.6044287109375,-0.24862289428710938,0.010750889778137207,0.0973765105009079
1772515163785476900,3.614476806640625,0.013271331787109375,0.04107940196990967,0.1286499947309494
1772515163795525000,3.624525146484375,0.2802762985229492,0.06598508358001709,0.1205810010433197
1772515163805573400,3.634573486328125,0.40653228759765625,0.11170154809951782,0.06082253158092499
1772515163815622400,3.644622314453125,0.4132728576660156,0.09724307060241699,-0.02628360688686371
1772515163825670700,3.654670654296875,0.39666748046875,0.09895849227905273,-0.07954350113868713
1772515163835714600,3.664714599609375,0.42772388458251953,0.07891523838043213,-0.07572661340236664
1772515163845762600,3.674762451171875,0.4115314483642578,0.0980796217918396,-0.08130417764186859
1772515163855810300,3.684810302734375,0.3158836364746094,0.05260765552520752,-0.10103026032447815
1772515163865858000,3.694858154296875,0.13257884979248047,0.029341578483581543,-0.10112638771533966
1772515163875902000,3.70490185546875,-0.09465408325195312,0.02421271800994873,-0.0344109982252121
1772515163885949400,3.714949462890625,-0.2993507385253906,-0.008357048034667969,0.06034122407436371
1772515163895995100,3.7249951171875,-0.4161052703857422,-0.010103583335876465,0.13084086775779724
1772515163906042600,3.735042724609375,-0.41823291778564453,0.0005155801773071289,0.1587221622467041
1772515163916091000,3.7450908203125,-0.2934703826904297,0.013563156127929688,0.09674742817878723
1772515163926138400,3.755138427734375,-0.12859821319580078,0.004653334617614746,0.04967096447944641
1772515163936185600,3.765185546875,0.00047016143798828125,-0.02674657106399536,0.050465211272239685
1772515163946233000,3.775233154296875,0.056754112243652344,-0.03878706693649292,0.060855090618133545
1772515163956251600,3.785251708984375,0.05561256408691406,-0.02258509397506714,0.10445071756839752
1772515163966296000,3.795296142578125,0.007431983947753906,-0.01177060604095459,0.1716269552707672
1772515163976372000,3.8053720703125,-0.1105947494506836,-0.005766868591308594,0.17241662740707397
1772515163986419700,3.815419677734375,-0.14199066162109375,-0.027335703372955322,0.12180700898170471
1772515163996439000,3.82543896484375,-0.13060855865478516,-0.0238226056098938,0.07673272490501404
1772515164006484000,3.83548388671875,-0.020610809326171875,-0.043013036251068115,0.059740111231803894
1772515164016559000,3.84555908203125,0.0969686508178711,-0.03342247009277344,0.06569726765155792
1772515164026607000,3.855607177734375,0.19382667541503906,-0.05756765604019165,0.06654985249042511
1772515164036657700,3.86565771484375,0.2468252182006836,-0.026018261909484863,0.10478772222995758
1772515164046706000,3.875705810546875,0.2756223678588867,0.017004728317260742,0.16570253670215607
1772515164056743000,3.885742919921875,0.2664823532104492,0.005484879016876221,0.1360408514738083
1772515164066790000,3.895789794921875,0.20587444305419922,-0.02170121669769287,0.1260058730840683
1772515164076830000,3.905829833984375,0.16530323028564453,-0.0031787753105163574,0.14439430832862854
1772515164086876200,3.915876220703125,0.07375431060791016,0.008993864059448242,0.12961487472057343
1772515164096933600,3.92593359375,0.016788482666015625,0.0012946128845214844,0.09605681896209717
1772515164106981000,3.935981201171875,-0.07685661315917969,-0.03013521432876587,0.09603838622570038
1772515164117033200,3.946033203125,-0.211395263671875,-0.08399850130081177,0.09232188761234283
1772515164127081200,3.956081298828125,-0.3109273910522461,-0.13055282831192017,0.05661292374134064
1772515164137112600,3.966112548828125,-0.32907867431640625,-0.11219769716262817,0.017431512475013733
1772515164147158800,3.97615869140625,-0.24833202362060547,-0.10565370321273804,0.04971519112586975
1772515164157205800,3.986205810546875,-0.07963275909423828,-0.07877427339553833,0.029271364212036133
1772515164167252000,3.996251953125,0.10506916046142578,-0.033207833766937256,0.050960391759872437
1772515164177301000,4.006301025390625,0.17378520965576172,-0.008043646812438965,0.05750057101249695
1772515164187347700,4.01634765625,0.1426076889038086,-0.008057713508605957,0.030934900045394897
1772515164197405000,4.026405029296875,0.0885000228881836,0.005246758460998535,0.023268699645996094
1772515164207452700,4.03645263671875,0.0823822021484375,-0.014626026153564453,0.03445243835449219
1772515164217490200,4.046490234375,0.04815387725830078,-0.020441532135009766,0.02210681140422821
1772515164227536600,4.05653662109375,0.023949623107910156,-0.017047524452209473,-0.023169368505477905
1772515164237584000,4.066583984375,0.014300346374511719,-0.023321032524108887,-0.06321440637111664
1772515164247630600,4.076630615234375,-0.07523059844970703,-0.03417938947677612,-0.13115188479423523
1772515164257687300,4.086687255859375,-0.1162271499633789,-0.030106306076049805,-0.1899774670600891
1772515164267735000,4.096735107421875,-0.1283245086669922,-0.0020294189453125,-0.19267885386943817
1772515164277782300,4.1067822265625,-0.09790992736816406,0.02630019187927246,-0.1772124171257019
1772515164287830000,4.116830078125,-0.0303802490234375,0.03584182262420654,-0.11082039773464203
1772515164297878800,4.126878662109375,-0.015786170959472656,0.05474650859832764,-0.05939168483018875
1772515164307926500,4.136926513671875,0.007924079895019531,0.08785605430603027,-0.07378048449754715
1772515164317963000,4.146962890625,0.200714111328125,0.1018751859664917,0.0016683191061019897
1772515164328009700,4.157009765625,0.31975269317626953,0.05352795124053955,0.07177236676216125
1772515164338057700,4.1670576171875,0.1968536376953125,0.013380646705627441,0.07225902378559113
1772515164348104400,4.1771044921875,-0.03211784362792969,0.042717695236206055,0.012948691844940186
1772515164358151000,4.18715087890625,-0.1818714141845703,0.04751718044281006,-0.10234397649765015
1772515164368197600,4.19719775390625,-0.3291969299316406,0.015284299850463867,-0.2020442932844162
1772515164378244000,4.207244140625,-0.41779518127441406,0.03741919994354248,-0.2099575698375702
1772515164388290800,4.217290771484375,-0.39220523834228516,0.08536195755004883,-0.21246057748794556
1772515164398348500,4.2273486328125,-0.3390979766845703,0.09286487102508545,-0.256446897983551
1772515164408396500,4.237396484375,-0.14116573333740234,0.1073770523071289,-0.3141205608844757
1772515164418433500,4.24743359375,0.20406246185302734,0.12727689743041992,-0.3344345986843109
1772515164428480300,4.257480224609375,0.4354104995727539,0.12183034420013428,-0.3079036474227905
1772515164438530300,4.2675302734375,0.5220108032226562,0.12249755859375,-0.2247532308101654
1772515164448577300,4.277577392578125,0.4380664825439453,0.13817846775054932,-0.1895861029624939
1772515164458630400,4.28763037109375,0.22868824005126953,0.13676142692565918,-0.15985271334648132
1772515164468678000,4.297677978515625,0.05123710632324219,0.08667933940887451,-0.1458752155303955
1772515164478727700,4.307727783203125,-0.061946868896484375,0.03662896156311035,-0.07168792933225632
1772515164488775400,4.317775390625,-0.154449462890625,-0.007469296455383301,-0.0035901591181755066
1772515164498840000,4.327840087890625,-0.23142528533935547,-0.011858344078063965,0.0068955197930336
1772515164508889600,4.3378896484375,-0.19899749755859375,-0.04751276969909668,-0.011423245072364807
1772515164518902500,4.347902587890625,-0.1296091079711914,-0.09047216176986694,0.00795874372124672
1772515164528948500,4.357948486328125,-0.028517723083496094,-0.10826903581619263,0.06944116950035095
1772515164538998300,4.367998291015625,-0.004483222961425781,-0.09250384569168091,0.14418384432792664
1772515164549044500,4.37804443359375,0.04269981384277344,-0.09593886137008667,0.1994524896144867
1772515164559092700,4.3880927734375,0.10326766967773438,-0.09972459077835083,0.24444153904914856
1772515164569139200,4.39813916015625,0.05933094024658203,-0.0808148980140686,0.2379494309425354
1772515164579185000,4.408184814453125,-0.012117385864257812,-0.0717436671257019,0.22247225046157837
1772515164589231000,4.418231201171875,-0.049469947814941406,-0.08116227388381958,0.19786927103996277
1772515164599288600,4.42828857421875,-0.11452960968017578,-0.08030873537063599,0.16426250338554382
1772515164609336000,4.438336181640625,-0.13158416748046875,-0.1015053391456604,0.14517240226268768
1772515164619413800,4.448413818359375,-0.06375885009765625,-0.08787387609481812,0.10628810524940491
1772515164629464300,4.45846435546875,0.026409149169921875,-0.08789724111557007,0.1284605860710144
1772515164639470000,4.468469970703125,0.016196250915527344,-0.06439012289047241,0.18323832750320435
1772515164649516000,4.47851611328125,0.06268978118896484,-0.0509830117225647,0.16655758023262024
1772515164659563000,4.48856298828125,0.29682350158691406,-0.07136780023574829,0.163790762424469
1772515164669609000,4.49860888671875,0.33423805236816406,-0.06537622213363647,0.1617421805858612
1772515164679667700,4.508667724609375,0.16880416870117188,-0.028847575187683105,0.1606234461069107
1772515164689715000,4.51871484375,0.07215118408203125,-0.036213040351867676,0.12611156702041626
1772515164699762200,4.52876220703125,0.0760202407836914,-0.0954553484916687,0.11957316845655441
1772515164709809700,4.5388095703125,-0.033150672912597656,-0.10221809148788452,0.17456671595573425
1772515164719858000,4.54885791015625,-0.22059345245361328,-0.07551103830337524,0.21480634808540344
1772515164729905400,4.558905517578125,-0.32035160064697266,-0.08982139825820923,0.21161474287509918
1772515164739954000,4.568953857421875,-0.042003631591796875,-0.11571520566940308,0.20290496945381165
1772515164750001400,4.57900146484375,0.19401264190673828,-0.0986071228981018,0.23231032490730286
1772515164760035800,4.589035888671875,0.11551856994628906,-0.022392630577087402,0.2667480409145355
1772515164770082000,4.59908203125,-0.032238006591796875,0.02848362922668457,0.22989046573638916
1772515164780129300,4.60912939453125,0.04371166229248047,-0.0008518695831298828,0.164094939827919
1772515164790175700,4.61917578125,0.18905925750732422,-0.053454577922821045,0.16911765933036804
1772515164800227600,4.6292275390625,0.10141277313232422,-0.03126680850982666,0.16524094343185425
1772515164810274600,4.639274658203125,-0.07416057586669922,-0.00546419620513916,0.12411735951900482
1772515164820324400,4.649324462890625,-0.11977958679199219,-0.026189565658569336,0.08813032507896423
1772515164830371600,4.65937158203125,-0.056448936462402344,-0.05027925968170166,0.019638419151306152
1772515164840413200,4.6694130859375,-0.027161598205566406,-0.03599727153778076,0.013198748230934143
1772515164850459600,4.679459716796875,-0.07374095916748047,0.006705760955810547,0.011317670345306396
1772515164860507100,4.689507080078125,-0.09135246276855469,0.011631965637207031,0.027888983488082886
1772515164870553600,4.6995537109375,0.09847640991210938,0.031004905700683594,0.015005216002464294
1772515164880611300,4.709611328125,0.20050048828125,0.03492438793182373,0.02103273570537567
1772515164890659300,4.719659423828125,0.09852886199951172,0.03706657886505127,-0.005001723766326904
1772515164900703500,4.729703369140625,-0.11939620971679688,0.029149651527404785,-0.05843769758939743
1772515164910751000,4.7397509765625,-0.14072895050048828,-0.0012655258178710938,-0.09270577132701874
1772515164920789000,4.7497890625,-0.04408740997314453,-0.020833492279052734,-0.05609382688999176
1772515164930835500,4.75983544921875,-0.03851890563964844,0.007019996643066406,-0.04371495544910431
1772515164940900600,4.769900634765625,-0.03777790069580078,0.020591378211975098,-0.07448405772447586
1772515164950949000,4.77994921875,0.04292774200439453,0.02523326873779297,-0.034675754606723785
1772515164960978400,4.789978515625,0.16470050811767578,0.03421008586883545,0.03268294036388397
1772515164971025000,4.80002490234375,0.20926475524902344,0.04152476787567139,0.03370700776576996
1772515164981071400,4.8100712890625,0.09786796569824219,0.028361201286315918,-0.04967154562473297
1772515164991117800,4.820117919921875,-0.07286357879638672,0.001090407371520996,-0.11734358966350555
1772515165001155300,4.8301552734375,-0.12783145904541016,-0.006069660186767578,-0.08519434183835983
1772515165011200800,4.84020068359375,-0.05953025817871094,0.0017285346984863281,-0.07288657128810883
1772515165021282300,4.8502822265625,0.007656097412109375,0.014003396034240723,-0.0991033986210823
1772515165031331300,4.860331298828125,0.003139495849609375,0.002142667770385742,-0.10609280318021774
1772515165041368800,4.870368896484375,-0.06255149841308594,0.009638071060180664,-0.07040688395500183
1772515165051416800,4.880416748046875,-0.0612945556640625,0.03174746036529541,-0.02597038447856903
1772515165061463600,4.890463623046875,-0.0648040771484375,0.049083828926086426,0.036851122975349426
1772515165071511600,4.900511474609375,-0.12007331848144531,0.0804605484008789,0.01866866648197174
1772515165081559800,4.910559814453125,-0.1415252685546875,0.1119222640991211,-0.008851557970046997
1772515165091607600,4.920607666015625,0.0021314620971679688,0.096282958984375,-0.022122502326965332
1772515165101653000,4.930653076171875,0.13876914978027344,0.08952987194061279,-0.08653229475021362
1772515165111700700,4.94070068359375,0.13672733306884766,0.07679581642150879,-0.21992231905460358
1772515165121744000,4.950743896484375,0.11130046844482422,0.09145915508270264,-0.26164472103118896
1772515165131791000,4.960791015625,0.0911417007446289,0.07174742221832275,-0.25090086460113525
1772515165141840100,4.970840087890625,0.09024524688720703,0.03275763988494873,-0.26858973503112793
1772515165151887600,4.9808876953125,0.08940505981445312,-0.005951404571533203,-0.2716597020626068
1772515165161935000,4.99093505859375,-0.029084205627441406,-0.08215343952178955,-0.32618802785873413
1772515165171982300,5.000982421875,-0.16913700103759766,-0.09111642837524414,-0.29546666145324707
1772515165182048300,5.01104833984375,-0.062127113342285156,0.009816169738769531,-0.09365278482437134
1772515165192097500,5.02109765625,0.0712270736694336,0.03496205806732178,0.11335358023643494
1772515165202123800,5.031123779296875,0.11763954162597656,0.03585612773895264,0.29363512992858887
1772515165212170800,5.041170654296875,0.1163330078125,0.08268535137176514,0.31092602014541626
1772515165222201900,5.051201904296875,0.13405227661132812,0.03321969509124756,0.2668282091617584
1772515165232247300,5.061247314453125,0.05749702453613281,-0.03581643104553223,0.2048918455839157
1772515165242308600,5.07130859375,-0.055335044860839844,-0.048155784606933594,0.15853077173233032
1772515165252355600,5.08135546875,-0.12389373779296875,-0.06522667407989502,0.1797899603843689
1772515165262403600,5.091403564453125,-0.24318981170654297,-0.06272590160369873,0.2162831723690033
1772515165272450600,5.101450439453125,-0.332427978515625,-0.07334029674530029,0.19784682989120483
1772515165282499600,5.11149951171875,-0.3451194763183594,-0.04424107074737549,0.16739815473556519
1772515165292546800,5.121546875,-0.2825641632080078,0.0006749629974365234,0.1857084035873413
1772515165302578200,5.131578125,-0.19304370880126953,0.03238332271575928,0.18616431951522827
1772515165312623900,5.141623779296875,-0.11930274963378906,0.04588615894317627,0.15425875782966614
1772515165322673400,5.15167333984375,-0.06576728820800781,0.04129135608673096,0.11896777153015137
1772515165332719600,5.1617197265625,0.02449798583984375,0.05117654800415039,0.08006811141967773
1772515165342770700,5.171770751953125,0.06150054931640625,0.046360135078430176,0.056610107421875
1772515165352817200,5.181817138671875,0.027284622192382812,0.055347442626953125,0.03456902503967285
1772515165362860500,5.191860595703125,0.050179481506347656,0.05908536911010742,0.03711360692977905
1772515165372906800,5.20190673828125,0.10574531555175781,0.033710360527038574,0.0025652050971984863
1772515165382955800,5.211955810546875,0.11813926696777344,-0.053658246994018555,-0.08205516636371613
1772515165393002200,5.222002197265625,0.10213947296142578,-0.13072621822357178,-0.11728915572166443
1772515165403047400,5.23204736328125,0.015807151794433594,-0.11730062961578369,-0.09936514496803284
1772515165413093600,5.24209375,-0.007884979248046875,-0.08502233028411865,-0.06313098222017288
1772515165423142100,5.25214208984375,0.0017518997192382812,-0.07158184051513672,-0.052548520267009735
1772515165433188900,5.26218896484375,-0.017052650451660156,-0.07667362689971924,-0.015461906790733337
1772515165443240200,5.272240234375,0.0397796630859375,-0.04359424114227295,0.004950717091560364
1772515165453287200,5.282287109375,0.05327892303466797,-0.08609306812286377,-0.01903793215751648
1772515165463333000,5.2923330078125,0.07596015930175781,-0.08990335464477539,-0.05373796820640564
1772515165473380000,5.302380126953125,0.12182331085205078,-0.09353649616241455,-0.028667829930782318
1772515165483440000,5.312440185546875,0.15754222869873047,-0.11132681369781494,0.008427470922470093
1772515165493488400,5.32248828125,0.17861652374267578,-0.08693802356719971,0.05817793309688568
1772515165503520300,5.332520263671875,0.12414932250976562,-0.07818830013275146,0.10665090382099152
1772515165513566700,5.342566650390625,0.06128692626953125,-0.07511484622955322,0.0972316712141037
1772515165523629000,5.352629150390625,0.023095130920410156,-0.05387377738952637,0.11617836356163025
1772515165533677000,5.362677001953125,-0.07567596435546875,-0.02828240394592285,0.1728590875864029
1772515165543723500,5.3727236328125,-0.1681842803955078,-0.016459107398986816,0.14359161257743835
1772515165553771500,5.382771484375,-0.1321401596069336,-0.017873764038085938,0.06696256995201111
1772515165563804700,5.3928046875,-0.04028892517089844,0.00047075748443603516,0.08491210639476776
1772515165573851100,5.40285107421875,-0.03470039367675781,0.027812838554382324,0.20592136681079865
1772515165583901000,5.41290087890625,-0.00083160400390625,0.0773019790649414,0.292069673538208
1772515165593947600,5.42294775390625,-0.05693244934082031,0.07832396030426025,0.24104496836662292
1772515165603995400,5.432995361328125,-0.1827688217163086,0.0418163537979126,0.19671612977981567
1772515165614042400,5.44304248046875,-0.18422412872314453,0.03042757511138916,0.12566016614437103
1772515165624103400,5.453103515625,-0.10579490661621094,-0.007757306098937988,0.0520763099193573
1772515165634152000,5.46315185546875,-0.028822898864746094,-0.0584491491317749,0.018393993377685547
1772515165644182000,5.47318212890625,0.03266143798828125,-0.05140101909637451,-0.004072815179824829
1772515165654228500,5.483228515625,0.11197376251220703,-0.021123528480529785,-0.02115611732006073
1772515165664274200,5.493274169921875,0.14766502380371094,-0.02490973472595215,-0.04266488552093506
1772515165674320600,5.503320556640625,0.1358165740966797,-0.03904581069946289,-0.04560874402523041
1772515165684371500,5.513371337890625,0.10546684265136719,-0.025687694549560547,-0.006477952003479004
1772515165694418200,5.523418212890625,0.11809253692626953,-0.008435845375061035,-0.02996380627155304
1772515165704478200,5.533478271484375,0.16828250885009766,-0.0014834403991699219,-0.04490943253040314
1772515165714526500,5.5435263671875,0.12361335754394531,0.013687968254089355,-0.01293325424194336
1772515165724557000,5.55355712890625,-0.014391899108886719,-0.0003355741500854492,0.00435204803943634
1772515165734603300,5.563603271484375,-0.09832572937011719,-0.032662153244018555,-0.054514870047569275
1772515165744660000,5.573659912109375,-0.17158031463623047,-0.06333053112030029,-0.08916179835796356
1772515165754707500,5.58370751953125,-0.15901851654052734,-0.07332503795623779,-0.08136802911758423
1772515165764746000,5.59374609375,-0.13741493225097656,-0.07712411880493164,-0.08801746368408203
1772515165774792400,5.60379248046875,-0.08336734771728516,-0.05149185657501221,-0.06578342616558075
1772515165784839200,5.613839111328125,-0.05856132507324219,-0.04921233654022217,-0.08588747680187225
1772515165794885600,5.6238857421875,-0.0012807846069335938,-0.05576515197753906,-0.115391805768013
1772515165804952000,5.6339521484375,0.12566852569580078,-0.019700288772583008,-0.09776884317398071
1772515165815000600,5.64400048828125,0.14703655242919922,0.038321495056152344,-0.03787335753440857
1772515165825027600,5.654027587890625,0.05045604705810547,0.018939733505249023,-0.03469859063625336
1772515165835074000,5.664073974609375,-0.02568340301513672,0.013913989067077637,-0.08281230926513672
1772515165845137400,5.674137451171875,-0.0016984939575195312,0.01390385627746582,-0.08315721154212952
1772515165855185700,5.684185546875,0.050159454345703125,0.03254961967468262,-0.017488941550254822
1772515165865217300,5.69421728515625,0.05883026123046875,0.03615522384643555,0.04800190031528473
1772515165875263700,5.704263671875,-0.055052757263183594,0.006330966949462891,0.06214940547943115
1772515165885320200,5.7143203125,-0.1717967987060547,0.029096245765686035,0.015365198254585266
1772515165895367400,5.724367431640625,-0.10309505462646484,-0.02736961841583252,-0.0831860899925232
1772515165905419300,5.734419189453125,0.09624671936035156,-0.0918046236038208,-0.1381446123123169
1772515165915467300,5.74446728515625,0.20761585235595703,-0.08069455623626709,-0.11654186248779297
1772515165925492700,5.75449267578125,0.20903396606445312,-0.03378450870513916,-0.05703321099281311
1772515165935538400,5.764538330078125,0.11171436309814453,0.0015149116516113281,-0.02134166657924652
1772515165945609700,5.774609619140625,-0.007454872131347656,-0.006665229797363281,-0.02880650758743286
1772515165955658000,5.784657958984375,-0.0681161880493164,0.008939623832702637,0.004933670163154602
1772515165965700400,5.794700439453125,-0.09955215454101562,0.0013437271118164062,0.08350400626659393
1772515165975747800,5.804747802734375,-0.09288406372070312,-0.005339860916137695,0.16967032849788666
1772515165985796600,5.814796630859375,-0.0722951889038086,-0.03949713706970215,0.21231962740421295
1772515165995844400,5.82484423828125,-0.0474090576171875,-0.05389666557312012,0.2034146636724472
1772515166005892900,5.834892822265625,-0.022989273071289062,-0.067801833152771,0.11534909904003143
1772515166015940600,5.844940673828125,-0.01787090301513672,-0.09523606300354004,0.010400518774986267
1772515166025973800,5.854973876953125,-0.03644847869873047,-0.1028822660446167,-0.05500563979148865
1772515166036020000,5.86502001953125,0.0017442703247070312,-0.08644843101501465,-0.08209352195262909
1772515166046068000,5.87506787109375,0.08167171478271484,-0.05134272575378418,-0.06199812889099121
1772515166056114400,5.885114501953125,0.056751251220703125,-0.02212703227996826,-0.06560677289962769
1772515166066172700,5.895172607421875,-0.014794349670410156,0.03917098045349121,-0.07361471652984619
1772515166076220400,5.905220458984375,-0.04277610778808594,0.057080984115600586,-0.05308888852596283
1772515166086234600,5.915234619140625,-0.056229591369628906,0.03743255138397217,-0.06540539860725403
1772515166096278800,5.92527880859375,-0.06015586853027344,0.014218688011169434,-0.0960121899843216
1772515166106364400,5.935364501953125,-0.007588386535644531,-0.003367304801940918,-0.08345456421375275
1772515166116413000,5.945412841796875,0.07708072662353516,0.007409572601318359,-0.0802580714225769
1772515166126442800,5.95544287109375,0.0709686279296875,0.03135085105895996,-0.10027690976858139
1772515166136489500,5.965489501953125,0.03678321838378906,0.03547847270965576,-0.13880902528762817
1772515166146536700,5.97553662109375,0.0691518783569336,0.029747486114501953,-0.1679520606994629
1772515166156583400,5.98558349609375,0.09167194366455078,0.07053911685943604,-0.1457774043083191
1772515166166630100,5.995630126953125,0.1139383316040039,0.10507476329803467,-0.09614400565624237
1772515166176676900,6.0056767578125,0.10772705078125,0.09557831287384033,-0.05691434442996979
1772515166186738700,6.01573876953125,0.07350635528564453,0.061600446701049805,-0.08866110444068909
1772515166196786700,6.02578662109375,-0.011897087097167969,0.018390893936157227,-0.11467795819044113
1772515166206845000,6.035844970703125,-0.04879474639892578,0.004167318344116211,-0.06936664879322052
1772515166216894200,6.045894287109375,-0.01918506622314453,0.009325385093688965,-0.07244393974542618
1772515166226931500,6.055931396484375,0.01932239532470703,-0.04649698734283447,-0.05261357128620148
1772515166236979500,6.0659794921875,0.06663990020751953,-0.030959248542785645,0.03717026114463806
1772515166247021800,6.076021728515625,0.019019126892089844,-0.05825948715209961,0.11165589094161987
1772515166257069300,6.0860693359375,-0.032517433166503906,-0.056861162185668945,0.17092464864253998
1772515166267117600,6.09611767578125,-0.02670001983642578,-0.0270538330078125,0.20029579102993011
1772515166277165000,6.1061650390625,-0.021009445190429688,-0.011495351791381836,0.2235644906759262
1772515166287202000,6.1162021484375,-0.10492229461669922,-0.03360021114349365,0.23289017379283905
1772515166297248500,6.12624853515625,-0.20637798309326172,-0.0594022274017334,0.20534402132034302
1772515166307304400,6.136304443359375,-0.17451953887939453,-0.06909894943237305,0.1503313034772873
1772515166317351700,6.1463515625,-0.0162506103515625,-0.08198690414428711,0.11064627766609192
1772515166327400700,6.156400634765625,0.016931533813476562,-0.07575607299804688,0.1240946352481842
1772515166337448400,6.166448486328125,-0.03520965576171875,-0.046114444732666016,0.1523083597421646
1772515166347496400,6.176496337890625,-0.05356788635253906,-0.011983752250671387,0.128606379032135
1772515166357544200,6.186544189453125,-0.015172004699707031,0.02206277847290039,0.10489228367805481
1772515166367590700,6.196590576171875,-0.010392189025878906,0.013250589370727539,0.07233703136444092
1772515166377638400,6.206638427734375,-0.019842147827148438,0.018902897834777832,-0.01151670515537262
1772515166387684400,6.216684326171875,-0.010329246520996094,0.015245795249938965,-0.07033072412014008
1772515166397731800,6.22673193359375,0.06023693084716797,0.016374707221984863,-0.09999449551105499
1772515166407749000,6.2367490234375,0.11082935333251953,-0.0015240907669067383,-0.12031464278697968
1772515166417793500,6.24679345703125,0.151336669921875,-0.015582442283630371,-0.1504993438720703
1772515166427854000,6.25685400390625,0.17722320556640625,-0.007128238677978516,-0.11941161006689072
1772515166437900000,6.266900146484375,0.1369009017944336,0.009541630744934082,-0.07467187941074371
1772515166447963000,6.276962890625,0.04082775115966797,0.03938591480255127,-0.0348990261554718
1772515166458010600,6.2870107421875,-0.03950691223144531,0.08269155025482178,-0.014012560248374939
1772515166468041700,6.297041748046875,-0.09967994689941406,0.07821321487426758,-0.011833921074867249
1772515166478088000,6.307087890625,-0.1919116973876953,0.04627382755279541,-0.01882985234260559
1772515166488139000,6.317138916015625,-0.2828636169433594,0.01197826862335205,-0.006383582949638367
1772515166498185500,6.327185546875,-0.15127277374267578,-0.033860206604003906,-0.036379143595695496
1772515166508246500,6.33724658203125,0.04391765594482422,-0.06379425525665283,-0.0663532242178917
1772515166518294500,6.34729443359375,0.17935657501220703,-0.10733509063720703,-0.04901924729347229
1772515166528325000,6.3573251953125,0.24208831787109375,-0.08552157878875732,0.029129669070243835
1772515166538371300,6.367371337890625,0.22867584228515625,-0.05635237693786621,0.11495769023895264
1772515166548433200,6.37743310546875,0.08854103088378906,-0.04311108589172363,0.19892406463623047
1772515166558481000,6.38748095703125,-0.06798267364501953,0.0021467208862304688,0.28086215257644653
1772515166568515800,6.397515869140625,-0.170135498046875,0.004639267921447754,0.3088204264640808
1772515166578562300,6.407562255859375,-0.16710758209228516,0.0032387971878051758,0.2512681484222412
1772515166588621800,6.417621826171875,-0.18311214447021484,-0.01591658592224121,0.17134462296962738
1772515166598669600,6.427669677734375,-0.13780975341796875,-0.04290449619293213,0.0738639384508133
1772515166608713500,6.43771337890625,-0.008692741394042969,-0.05864536762237549,0.0815325677394867
1772515166618761000,6.447760986328125,0.09935569763183594,-0.06883096694946289,0.06573794782161713
1772515166628797200,6.457797119140625,0.1773967742919922,-0.05091381072998047,0.026656806468963623
1772515166638843400,6.467843505859375,0.18838977813720703,-0.01095438003540039,0.02540615200996399
1772515166648893000,6.477892822265625,0.22295570373535156,-0.006127834320068359,0.07077307999134064
1772515166658939600,6.487939697265625,0.1724386215209961,0.0391843318939209,0.09637583792209625
1772515166668987000,6.49798681640625,-0.008907318115234375,0.03533506393432617,0.07955761253833771
1772515166679033600,6.50803369140625,-0.14014244079589844,-0.006137728691101074,0.01604446768760681
1772515166689078800,6.518078857421875,-0.2552309036254883,-0.012759566307067871,0.015031591057777405
1772515166699125500,6.52812548828125,-0.2792015075683594,-0.017358899116516113,0.018905162811279297
1772515166709182700,6.5381826171875,-0.15707874298095703,-0.029192566871643066,-0.02487410604953766
1772515166719230200,6.548230224609375,0.028774261474609375,-0.04903972148895264,-0.03530526161193848
1772515166729269200,6.558269287109375,0.11734676361083984,-0.06384098529815674,-0.012157037854194641
1772515166739316200,6.568316162109375,0.11506271362304688,-0.04141366481781006,-0.007698193192481995
1772515166749392600,6.578392578125,0.11294364929199219,-0.010926365852355957,0.006321460008621216
1772515166759442400,6.5884423828125,0.1015481948852539,0.013640403747558594,-0.04161934554576874
1772515166769460200,6.598460205078125,0.09987354278564453,-0.009969830513000488,-0.08967956900596619
1772515166779507000,6.6085068359375,0.06533050537109375,-0.014727115631103516,-0.07628105580806732
1772515166789567700,6.618567626953125,-0.029816627502441406,-0.0007508993148803711,-0.054013922810554504
1772515166799615700,6.62861572265625,-0.0857686996459961,-0.0006098747253417969,-0.03253622353076935
1772515166809657300,6.6386572265625,-0.07966136932373047,0.0331120491027832,0.007500067353248596
1772515166819704600,6.64870458984375,-0.045464515686035156,0.014876723289489746,0.028347760438919067
1772515166829742000,6.6587421875,-0.03541088104248047,-0.021794676780700684,0.03545312583446503
1772515166839788300,6.668788330078125,-0.0726327896118164,-0.015478849411010742,0.015102937817573547
1772515166849837000,6.678837158203125,-0.015117645263671875,-0.027708768844604492,0.009358063340187073
1772515166859883500,6.688883544921875,0.03199481964111328,-0.02540886402130127,-0.010416626930236816
1772515166869928200,6.69892822265625,0.08777523040771484,-0.023450851440429688,0.003312423825263977
1772515166879974400,6.708974365234375,0.1427288055419922,-0.036357760429382324,-0.011813625693321228
1772515166890023000,6.71902294921875,0.09799003601074219,-0.04044222831726074,0.020538151264190674
1772515166900069400,6.7290693359375,-0.02597332000732422,-0.021522879600524902,0.04786933958530426
1772515166910128400,6.73912841796875,-0.09609508514404297,0.001977086067199707,0.07921808958053589
1772515166920176000,6.749176025390625,-0.1415719985961914,0.02086317539215088,0.11954240500926971
1772515166930211300,6.75921142578125,-0.16761493682861328,0.012260794639587402,0.13156449794769287
1772515166940257800,6.7692578125,-0.16985225677490234,0.014290690422058105,0.13513043522834778
1772515166950319600,6.779319580078125,-0.15339374542236328,-0.0014647245407104492,0.09277504682540894
1772515166960367900,6.789367919921875,-0.07615852355957031,-0.02059197425842285,-0.009271100163459778
1772515166970383600,6.799383544921875,-0.0002899169921875,-0.010564446449279785,-0.09999936819076538
1772515166980428500,6.809428466796875,0.14024925231933594,-0.024211525917053223,-0.1474241316318512
1772515166990507800,6.8195078125,0.30213356018066406,-0.005625367164611816,-0.09583055973052979
1772515167000556000,6.82955615234375,0.37217235565185547,0.019771814346313477,-0.07866933941841125
1772515167010570500,6.839570556640625,0.3472318649291992,0.06099879741668701,-0.048702672123909
1772515167020615400,6.849615478515625,0.15354156494140625,0.11787939071655273,0.041171059012413025
1772515167030683100,6.85968310546875,-0.027368545532226562,0.1211005449295044,0.06774400174617767
1772515167040730400,6.86973046875,-0.13465404510498047,0.0632561445236206,0.09372881054878235
1772515167050777600,6.879777587890625,-0.24499893188476562,0.012076973915100098,0.10091514885425568
1772515167060824800,6.889824951171875,-0.2454233169555664,-0.008408308029174805,0.047064408659935
1772515167070870500,6.89987060546875,-0.194244384765625,-0.041275620460510254,0.051129668951034546
1772515167080917500,6.90991748046875,-0.12050914764404297,-0.04915726184844971,0.05576838552951813
1772515167090967600,6.919967529296875,-0.033957481384277344,-0.05182778835296631,0.014505326747894287
1772515167101015000,6.93001513671875,0.03228759765625,-0.08261454105377197,-0.05356854200363159
1772515167111069000,6.94006884765625,0.040924072265625,-0.08933472633361816,-0.05923464894294739
1772515167121117000,6.950116943359375,0.07773685455322266,-0.04464161396026611,0.0009715408086776733
1772515167131155200,6.9601552734375,0.06221199035644531,-0.0011937618255615234,0.045845165848731995
1772515167141202200,6.9702021484375,-0.00012969970703125,0.013269782066345215,0.05666428804397583
1772515167151249000,6.980248779296875,-0.02847766876220703,0.032294631004333496,0.07645860314369202
1772515167161296100,6.990296142578125,-0.023405075073242188,0.05119633674621582,0.10006912052631378
1772515167171344000,7.00034375,-0.0702199935913086,0.05575251579284668,0.07131741940975189
1772515167181391000,7.01039111328125,-0.0880422592163086,0.046398282051086426,0.028971537947654724
1772515167191448000,7.020447998046875,-0.11978626251220703,0.04250526428222656,-0.007317438721656799
1772515167201496300,7.030496337890625,-0.03336524963378906,0.010924339294433594,-0.06122384965419769
1772515167211548400,7.04054833984375,0.09866809844970703,-0.0200197696685791,-0.05215691030025482
1772515167221597000,7.050596923828125,0.24268531799316406,0.0383070707321167,0.175009086728096
1772515167231624400,7.06062451171875,0.040679931640625,-0.009374499320983887,0.195180743932724
1772515167241671000,7.0706708984375,-0.3086404800415039,0.028173327445983887,0.0716322511434555
1772515167251722500,7.080722412109375,-0.3980865478515625,0.06701171398162842,-0.03232628107070923
1772515167261769500,7.09076953125,-0.1472911834716797,0.02297687530517578,-0.0241682231426239
1772515167271827200,7.1008271484375,0.11815071105957031,0.036501407623291016,-0.01291687786579132
1772515167281875200,7.110875244140625,0.1297016143798828,0.0678408145904541,-0.052491188049316406
1772515167291909000,7.1209091796875,0.15526771545410156,0.041568875312805176,-0.08659785240888596
1772515167301955800,7.130955810546875,0.0816497802734375,0.05724143981933594,-0.1014595776796341
1772515167312014600,7.1410146484375,0.065826416015625,0.05354642868041992,-0.14119407534599304
1772515167322062300,7.151062255859375,0.13511943817138672,0.06355977058410645,-0.06946596503257751
1772515167332095700,7.161095703125,0.14222240447998047,0.04396522045135498,-0.019504010677337646
1772515167342142200,7.17114208984375,0.1540813446044922,0.05656611919403076,-0.056949056684970856
1772515167352201500,7.181201416015625,0.13761520385742188,0.021079301834106445,-0.02948690950870514
1772515167362249000,7.1912490234375,0.0980072021484375,-0.0052901506423950195,0.0014211833477020264
1772515167372287000,7.201286865234375,0.054419517517089844,-0.045841097831726074,0.055119454860687256
1772515167382333700,7.211333740234375,-0.03549480438232422,-0.06247854232788086,0.07086682319641113
1772515167392380000,7.2213798828125,-0.07216262817382812,-0.06441235542297363,0.10109318792819977
1772515167402426600,7.231426513671875,-0.06587791442871094,-0.05198955535888672,0.08916746079921722
1772515167412457700,7.241457763671875,-0.08798980712890625,-0.05840897560119629,0.08320492506027222
1772515167422503000,7.2515029296875,-0.1616230010986328,-0.06413006782531738,0.0643855631351471
1772515167432582100,7.26158203125,-0.16356182098388672,-0.05913829803466797,0.0226563960313797
1772515167442630700,7.271630615234375,-0.16091632843017578,-0.020058274269104004,0.05691519379615784
1772515167452683800,7.281683837890625,-0.12545299530029297,0.014464616775512695,0.014864444732666016
1772515167462732800,7.29173291015625,-0.005946159362792969,0.03528857231140137,-0.02237943559885025
1772515167472770300,7.301770263671875,0.1256847381591797,0.03233218193054199,-0.04047344624996185
1772515167482818300,7.311818359375,0.236419677734375,0.028438210487365723,-0.0397486537694931
1772515167492868400,7.321868408203125,0.29842090606689453,0.0513690710067749,-0.015810690820217133
1772515167502916400,7.331916259765625,0.1666088104248047,0.048273444175720215,0.01247166097164154
1772515167512960500,7.34196044921875,-0.009930610656738281,0.020483851432800293,0.02594195306301117
1772515167523008300,7.35200830078125,-0.08464336395263672,0.016698241233825684,0.04841578006744385
1772515167533052000,7.362052001953125,-0.08756256103515625,-0.019388794898986816,0.05666804313659668
1772515167543099400,7.372099365234375,-0.10936927795410156,-0.00699007511138916,0.0410778671503067
1772515167553124600,7.38212451171875,-0.093231201171875,-0.012929320335388184,0.02547430992126465
1772515167563169800,7.392169677734375,-0.0774688720703125,-0.013259053230285645,0.03375926613807678
1772515167573290500,7.40229052734375,-0.0196533203125,-0.03661990165710449,0.03684923052787781
1772515167583343000,7.412343017578125,0.13140392303466797,-0.022119641304016113,0.08184440433979034
1772515167593313000,7.42231298828125,0.20003986358642578,-0.009058117866516113,0.1364540308713913
1772515167603357400,7.432357421875,-0.019502639770507812,0.006763100624084473,0.09840402007102966
1772515167613435000,7.442434814453125,-0.24013328552246094,0.012984156608581543,0.058076322078704834
1772515167623482600,7.452482666015625,-0.25955867767333984,0.0019812583923339844,0.04246579110622406
1772515167633508400,7.46250830078125,-0.20359134674072266,-0.0068367719650268555,0.04155677556991577
1772515167643553800,7.4725537109375,-0.08283424377441406,-0.014006614685058594,0.017153888940811157
1772515167653592300,7.48259228515625,0.035839080810546875,-0.053519606590270996,0.036145538091659546
1772515167663637000,7.492636962890625,0.12898540496826172,-0.05941343307495117,0.0649564266204834
1772515167673706800,7.502706787109375,0.17830276489257812,-0.04246819019317627,0.07031548023223877
1772515167683754000,7.51275390625,0.25995540618896484,-0.013094663619995117,0.05621575564146042
1772515167693791700,7.522791748046875,0.26984119415283203,-0.014069795608520508,0.05100278556346893
1772515167703838200,7.532838134765625,0.22332477569580078,0.016020774841308594,0.049514248967170715
1772515167713901300,7.5429013671875,0.14482879638671875,0.0018148422241210938,0.04669080674648285
1772515167723949300,7.55294921875,0.1431264877319336,-0.022573351860046387,0.0709976926445961
1772515167733981700,7.562981689453125,0.042713165283203125,-0.05697441101074219,0.08505965769290924
1772515167744028200,7.573028076171875,-0.09836864471435547,-0.05805683135986328,0.06568250060081482
1772515167754086700,7.583086669921875,-0.1477527618408203,-0.0534137487411499,0.04091691970825195
1772515167764134400,7.593134521484375,-0.1729116439819336,-0.07127749919891357,0.03478427231311798
1772515167774184700,7.603184814453125,-0.12245941162109375,-0.06890487670898438,0.04278036952018738
1772515167784232700,7.613232666015625,-0.110626220703125,-0.0563504695892334,0.027302078902721405
1772515167794257700,7.623257568359375,-0.07083797454833984,-0.057422757148742676,0.01707925647497177
1772515167804303400,7.633303466796875,0.005898475646972656,-0.04866147041320801,0.03556530922651291
1772515167814373000,7.643373046875,0.057845115661621094,-0.02152109146118164,0.05929701030254364
1772515167824421000,7.653421142578125,0.0288848876953125,0.014490246772766113,0.05515585094690323
1772515167834452200,7.6634521484375,0.014540672302246094,0.012141108512878418,0.06565391272306442
1772515167844498400,7.67349853515625,-0.05133628845214844,0.03788161277770996,0.0857718288898468
1772515167854557400,7.683557373046875,-0.10201263427734375,0.016301989555358887,0.0677294135093689
1772515167864605200,7.693605224609375,-0.07658863067626953,-0.02315223217010498,0.02178865671157837
1772515167874656000,7.703656005859375,-0.08936214447021484,-0.04711711406707764,-0.022624514997005463
1772515167884704000,7.7137041015625,-0.08789539337158203,-0.03701043128967285,-0.07081633806228638
1772515167894738700,7.72373876953125,0.05470848083496094,-0.012132763862609863,-0.0723755806684494
1772515167904785400,7.733785400390625,0.19495868682861328,0.002823472023010254,0.01924022287130356
1772515167914830300,7.743830322265625,0.2483072280883789,0.006709694862365723,0.08588656038045883
1772515167924877000,7.753876953125,0.15501022338867188,-0.0003941059112548828,0.10407696664333344
1772515167934924800,7.7639248046875,0.035144805908203125,0.0011284351348876953,0.10269708931446075
1772515167944971300,7.77397119140625,-0.04031085968017578,-0.0069997310638427734,0.05855778604745865
1772515167955018200,7.784018310546875,-0.19931983947753906,-0.03342640399932861,0.05774642527103424
1772515167965065000,7.79406494140625,-0.35117244720458984,-0.025052666664123535,0.06252889335155487
1772515167975095000,7.804094970703125,-0.38783740997314453,-0.01902627944946289,0.053559139370918274
1772515167985140000,7.814139892578125,-0.32537078857421875,0.003626704216003418,0.0685243085026741
1772515167995205600,7.82420556640625,-0.1700420379638672,0.0231015682220459,0.08869362622499466
1772515168005252900,7.8342529296875,-0.01742839813232422,0.01959061622619629,0.043509893119335175
1772515168015314700,7.844314697265625,0.13733386993408203,0.016245365142822266,-0.009779401123523712
1772515168025363200,7.85436328125,0.2802000045776367,-0.0018754005432128906,-0.08563011884689331
1772515168035395000,7.86439501953125,0.4020652770996094,0.011765122413635254,-0.11840042471885681
1772515168045442000,7.874442138671875,0.45633983612060547,0.027301311492919922,-0.08574853837490082
1772515168055498800,7.884498779296875,0.3500862121582031,0.05800604820251465,-0.045492272824048996
1772515168065546500,7.89454638671875,0.11879348754882812,0.03409993648529053,-0.03072207421064377
1772515168075593200,7.90459326171875,-0.04728221893310547,0.01900768280029297,0.019924670457839966
1772515168085641000,7.914640869140625,-0.19648075103759766,0.009075284004211426,0.03116946667432785
1772515168095694000,7.924694091796875,-0.3198404312133789,0.019544005393981934,0.018940024077892303
1772515168105742300,7.934742431640625,-0.2860736846923828,-0.0008105039596557617,-0.021347686648368835
1772515168115771600,7.944771728515625,-0.1495685577392578,0.004828691482543945,-0.009173229336738586
1772515168125818000,7.954818115234375,0.02689647674560547,0.034922003746032715,-0.006048440933227539
1772515168135869400,7.964869384765625,0.24754810333251953,0.0029993057250976562,-0.031287599354982376
1772515168145916400,7.97491650390625,0.36588573455810547,-0.06786024570465088,-0.08412540704011917
1772515168155968000,7.984968017578125,0.22832202911376953,-0.045871853828430176,-0.07413803040981293
1772515168166015500,7.995015380859375,0.07446479797363281,0.0163266658782959,-0.07391688227653503
1772515168176066800,8.00506689453125,0.031617164611816406,0.03410983085632324,-0.06505479663610458
1772515168186114600,8.015114501953125,-0.010468482971191406,0.06072080135345459,-0.028473034501075745
1772515168196149500,8.0251494140625,-0.09896373748779297,0.07768487930297852,0.026365965604782104
1772515168206196000,8.035196044921875,-0.10129547119140625,0.07132160663604736,0.0850825086236
1772515168216255700,8.045255859375,-0.1506938934326172,0.08398723602294922,0.06848172098398209
1772515168226303500,8.055303466796875,-0.2088336944580078,0.040946006774902344,0.043685927987098694
1772515168236353800,8.065353759765625,-0.22849464416503906,0.018558144569396973,0.03866686671972275
1772515168246401800,8.07540185546875,-0.21978378295898438,0.030907154083251953,0.05808962881565094
1772515168256443400,8.085443359375,-0.18792247772216797,0.04945671558380127,0.05902440845966339
1772515168266491000,8.095490966796875,0.012769699096679688,0.06868767738342285,0.07481257617473602
1772515168276536600,8.10553662109375,0.16775894165039062,0.03559291362762451,0.04429430514574051
1772515168286583800,8.115583740234374,0.19313335418701172,0.0022433996200561523,0.04873386770486832
1772515168296625000,8.125625,0.24647140502929688,0.015531659126281738,0.04944763332605362
1772515168306671600,8.135671630859376,0.17201519012451172,0.022284388542175293,0.06963427364826202
1772515168316726000,8.14572607421875,0.009527206420898438,0.018198728561401367,0.061197713017463684
1772515168326773500,8.1557734375,-0.1220083236694336,-0.023386359214782715,0.03854317218065262
1772515168336812300,8.165812255859375,-0.17618083953857422,-0.039530038833618164,0.03976009041070938
1772515168346858800,8.175858642578126,-0.14959716796875,-0.03987717628479004,0.03119969367980957
1772515168356904000,8.185904052734376,-0.08594322204589844,-0.072074294090271,0.027602586895227432
1772515168366950400,8.195950439453124,-0.02811145782470703,-0.05624544620513916,0.009838663041591644
1772515168377007900,8.2060078125,0.0005388259887695312,-0.05029416084289551,-0.01775655336678028
1772515168387055400,8.216055419921876,0.009897232055664062,-0.04924929141998291,-0.035952840000391006
1772515168397094400,8.226094482421875,0.005021095275878906,-0.06264376640319824,-0.04499087110161781
1772515168407140900,8.236140869140625,-0.009186744689941406,-0.03814232349395752,-0.08782235532999039
1772515168417186300,8.246186279296875,0.061615943908691406,-0.032979726791381836,-0.098611019551754
1772515168427232800,8.256232666015626,0.1266040802001953,-0.01898336410522461,-0.04898029938340187
1772515168437279700,8.26627978515625,0.0729074478149414,0.003397703170776367,-0.00472722202539444
1772515168447326500,8.276326416015625,-0.05517387390136719,0.034422874450683594,-0.027088774368166924
1772515168457385500,8.286385498046876,-0.10582447052001953,0.013436198234558105,-0.011579547077417374
1772515168467433200,8.29643310546875,-0.1322031021118164,-0.006396770477294922,-0.019815869629383087
1772515168477490400,8.306490478515625,-0.12535476684570312,-0.03411376476287842,-0.0462045818567276
1772515168487539000,8.3165390625,-0.05755138397216797,0.0008444786071777344,-0.04400363191962242
1772515168497573000,8.326572998046874,0.04674816131591797,-0.0068585872650146484,-0.018655382096767426
1772515168507620400,8.336620361328125,0.1258249282836914,0.02283787727355957,-0.003301848191767931
1772515168517660400,8.346660400390626,0.2649526596069336,0.04152119159698486,0.039218269288539886
1772515168527707000,8.356706787109376,0.3597135543823242,0.043464064598083496,0.08055714517831802
1772515168537752600,8.366752685546874,0.1989603042602539,0.028943300247192383,0.09362651407718658
1772515168547799000,8.376799072265625,-0.03429126739501953,0.03239452838897705,0.12614057958126068
1772515168557848800,8.386848876953126,-0.10358715057373047,0.04540455341339111,0.14850714802742004
1772515168567895600,8.3968955078125,-0.1388387680053711,-0.021344780921936035,0.11884821951389313
1772515168577949700,8.40694970703125,-0.24895477294921875,-0.01555323600769043,0.12333166599273682
1772515168587997400,8.41699755859375,-0.40461254119873047,0.025109052658081055,0.14206543564796448
1772515168598036500,8.427036376953126,-0.2567911148071289,0.030627012252807617,0.09788841009140015
1772515168608083200,8.437083251953124,0.24615955352783203,-0.023357272148132324,0.1376020759344101
1772515168618131000,8.447130859375,0.4490995407104492,-0.04558289051055908,0.19176770746707916
1772515168628177700,8.457177734375,0.18770599365234375,-0.014342665672302246,0.16717714071273804
1772515168638239500,8.467239501953125,-0.06447505950927734,-0.012885451316833496,0.05832068622112274
1772515168648287700,8.477287841796874,-0.0112152099609375,-0.04360628128051758,0.015321629121899605
1772515168658312200,8.487312255859376,0.06465816497802734,-0.04525637626647949,0.07588434219360352
1772515168668358100,8.497358154296874,0.045124053955078125,-0.004707694053649902,0.14074671268463135
1772515168678431000,8.507430908203125,-0.08706188201904297,0.03495502471923828,0.1348067969083786
1772515168688479500,8.5174794921875,-0.1606597900390625,0.04651141166687012,0.1005294919013977
1772515168698528000,8.527528076171874,-0.06369400024414062,0.021407246589660645,0.061072785407304764
1772515168708576500,8.537576416015625,0.059848785400390625,-0.031130194664001465,0.04092293605208397
1772515168718616800,8.547616943359374,0.11071395874023438,-0.07347393035888672,0.008239906281232834
1772515168728664600,8.55766455078125,0.12316226959228516,-0.07343494892120361,0.014843260869383812
1772515168738710800,8.567710693359375,0.05550384521484375,-0.022602319717407227,-0.034309178590774536
1772515168748758500,8.577758544921876,0.01732921600341797,0.01726675033569336,-0.06389547139406204
1772515168758806800,8.587806884765625,0.04102134704589844,-0.018964290618896484,-0.06574150919914246
1772515168768854500,8.5978544921875,0.09731101989746094,0.0017130374908447266,-0.0023410487920045853
1772515168778900000,8.60789990234375,0.10098743438720703,0.016536593437194824,0.06897483766078949
1772515168788947500,8.617947509765624,0.0859060287475586,0.030210256576538086,0.0629485473036766
1772515168798994200,8.627994140625,0.13713550567626953,-0.037291526794433594,0.08514438569545746
1772515168809041400,8.63804150390625,0.05109882354736328,-0.052777886390686035,0.0744713842868805
1772515168819071500,8.648071533203124,-0.10408306121826172,0.025876402854919434,0.10611395537853241
1772515168829117200,8.6581171875,-0.21442890167236328,-0.023021697998046875,0.10798275470733643
1772515168839183400,8.668183349609375,-0.15366268157958984,-0.09776413440704346,0.06660707294940948
1772515168849231000,8.678231201171876,-0.028154373168945312,-0.06185483932495117,0.04413582384586334
1772515168859261000,8.688260986328125,0.024590492248535156,-0.035657405853271484,0.06406804919242859
1772515168869307000,8.698306884765625,0.06707191467285156,-0.057192206382751465,0.16413339972496033
1772515168879369200,8.708369140625,0.04296875,-0.03159594535827637,0.1414920836687088
1772515168889416700,8.718416748046875,-0.04188346862792969,-0.0633317232131958,0.03955496475100517
1772515168899449600,8.72844970703125,-0.12067317962646484,-0.07529938220977783,-0.004061460494995117
1772515168909495600,8.73849560546875,-0.19359493255615234,-0.043691277503967285,-0.004349507391452789
1772515168919555600,8.7485556640625,-0.24668502807617188,-0.02533590793609619,0.005070306360721588
1772515168929603000,8.75860302734375,-0.19556617736816406,-0.0102921724319458,-0.046408992260694504
1772515168939660800,8.768660888671874,-0.07016468048095703,0.005804538726806641,-0.07313372194766998
1772515168949709300,8.778709228515625,0.06247234344482422,-0.01543283462524414,-0.09464512765407562
1772515168959734300,8.788734375,0.1318063735961914,0.038223862648010254,-0.06807075440883636
1772515168969780500,8.798780517578125,0.09656333923339844,0.03339076042175293,-0.10274026542901993
1772515168979826400,8.808826416015625,0.04314994812011719,-0.018944263458251953,-0.1697840541601181
1772515168989872600,8.81887255859375,0.004754066467285156,-0.03744196891784668,-0.11335606127977371
1772515168999937000,8.82893701171875,-0.05183696746826172,-0.03208506107330322,-0.0909794494509697
1772515169009984800,8.83898486328125,-0.03222179412841797,-0.059275269508361816,-0.07893411815166473
1772515169019989000,8.848989013671876,0.08119487762451172,-0.062170982360839844,-0.002222951501607895
1772515169030032600,8.85903271484375,0.06560420989990234,-0.032153964042663574,0.07785754650831223
1772515169040122600,8.86912255859375,-0.001506805419921875,-0.016860008239746094,0.12406063824892044
1772515169050171000,8.8791708984375,-0.02984619140625,0.007693290710449219,0.13166919350624084
1772515169060206600,8.88920654296875,-0.0012531280517578125,0.013299345970153809,0.06316667050123215
1772515169070253600,8.899253662109375,0.03629779815673828,-0.028374671936035156,0.004614152014255524
1772515169080311600,8.9093115234375,0.07325363159179688,-0.04601025581359863,-0.02481229044497013
1772515169090359800,8.91935986328125,0.043766021728515625,-0.021574854850769043,-0.006792027503252029
1772515169100394000,8.92939404296875,0.000659942626953125,0.03060448169708252,0.0012277401983737946
1772515169110440700,8.939440673828125,-0.022935867309570312,0.016293764114379883,-0.0010055378079414368
1772515169120487200,8.949487060546875,-0.0179443359375,0.01674795150756836,0.015017371624708176
1772515169130534000,8.959533935546874,-0.0272369384765625,0.017695903778076172,-0.002432744950056076
1772515169140599800,8.969599853515625,0.14255523681640625,-0.023746490478515625,-0.015505896881222725
1772515169150648600,8.979648681640626,0.2861452102661133,-0.02792954444885254,-0.00028034672141075134
1772515169160678100,8.98967822265625,0.20635604858398438,-0.0011788606643676758,0.0152205228805542
1772515169170724900,8.999724853515625,-0.055497169494628906,0.023519515991210938,0.045298073440790176
1772515169180770800,9.009770751953125,-0.0729055404663086,0.04349815845489502,0.018301744014024734
1772515169190817500,9.019817626953126,0.0606689453125,0.001832127571105957,0.05288216471672058
1772515169200878800,9.02987890625,-0.0009012222290039062,0.011746048927307129,0.07390507310628891
1772515169210926800,9.0399267578125,-0.19801712036132812,0.021596670150756836,0.09597376734018326
1772515169220961800,9.0499619140625,-0.2743806838989258,0.014049410820007324,0.04736967384815216
1772515169231008800,9.0600087890625,-0.11910438537597656,-0.052286386489868164,0.01834121346473694
1772515169241064200,9.070064208984375,-0.004181861877441406,-0.06512093544006348,0.07974470406770706
1772515169251112000,9.08011181640625,-0.08423423767089844,0.035260915756225586,0.13188445568084717
1772515169261108500,9.0901083984375,-0.09712791442871094,0.05921769142150879,0.099089115858078
1772515169271171800,9.100171875,0.08315658569335938,0.012746095657348633,0.061616457998752594
1772515169281220400,9.110220458984376,0.17107772827148438,-0.010111331939697266,0.08199938386678696
1772515169301311500,9.1303115234375,-0.04932594299316406,0.017054319381713867,0.0072106607258319855
1772515169311372800,9.140372802734374,0.14925479888916016,-0.06809115409851074,-0.11706015467643738
1772515169331468000,9.160468017578125,0.2496480941772461,-0.051668763160705566,-0.1201641857624054
1772515169341535000,9.170534912109375,-0.059737205505371094,0.051989078521728516,-0.07644248008728027
1772515169351584300,9.180584228515626,-0.2604637145996094,0.022692441940307617,-0.010760990902781487
1772515169361609200,9.190609130859375,-0.3027677536010742,0.04298222064971924,0.04358566179871559
1772515169371608600,9.200608642578125,-0.2410869598388672,0.0366818904876709,0.08693669736385345
1772515169391707000,9.220706787109375,-0.009364128112792969,0.06497049331665039,0.1243426501750946
1772515169401766400,9.230766357421874,-0.004634857177734375,0.041159749031066895,0.10101914405822754
1772515169411815700,9.240815673828125,-0.07535362243652344,0.017943263053894043,-0.006578851491212845
1772515169421896700,9.250896728515626,-0.06023120880126953,0.028679847717285156,-0.11309429258108139
1772515169431948800,9.26094873046875,0.17122459411621094,-0.012459039688110352,-0.09681007266044617
1772515169441994500,9.270994384765626,0.2719564437866211,-0.016941189765930176,-0.0667501911520958
1772515169452045800,9.2810458984375,0.08407974243164062,0.05679786205291748,-0.05991164967417717
1772515169462090800,9.2910908203125,-0.0770263671875,0.08162474632263184,-0.08183230459690094
1772515169472141600,9.3011416015625,-0.06604576110839844,0.0926133394241333,-0.029390988871455193
1772515169482179600,9.3111796875,-0.036505699157714844,0.0898967981338501,0.025945570319890976
1772515169492229000,9.32122900390625,-0.06871318817138672,0.08752560615539551,0.046519093215465546
1772515169502273500,9.3312734375,-0.04400444030761719,0.048326730728149414,0.023511182516813278
1772515169512322600,9.341322509765625,-0.02450847625732422,-0.003742814064025879,0.000706549733877182
1772515169522359000,9.351359130859375,-0.03831291198730469,-0.03600788116455078,-0.01681535318493843
1772515169532406500,9.361406494140626,-0.04727363586425781,0.0034972429275512695,-0.0009829364717006683
1772515169542451500,9.371451416015624,0.05685997009277344,0.014495134353637695,0.000167112797498703
1772515169552498700,9.381498779296875,0.1875905990600586,-0.003438234329223633,0.0059585534036159515
1772515169562548000,9.3915478515625,0.2268667221069336,-0.01755988597869873,-0.058655351400375366
1772515169572595500,9.401595458984374,0.20920372009277344,-0.023423433303833008,-0.09369854629039764
1772515169582639000,9.41163916015625,0.16845035552978516,-0.011346101760864258,-0.08140818774700165
1772515169592686300,9.421686279296875,0.10496139526367188,-0.0002639293670654297,-0.0366554819047451
1772515169602766600,9.4317666015625,0.023748397827148438,0.010328054428100586,-0.0023930594325065613
1772515169612817400,9.4418173828125,-0.0702657699584961,0.03037726879119873,0.030958913266658783
1772515169622865700,9.45186572265625,-0.1675434112548828,0.008522510528564453,0.0634370669722557
1772515169632916000,9.461916015625,-0.17862892150878906,0.03061509132385254,0.07606901973485947
1772515169642960100,9.471960205078124,-0.12389469146728516,-0.021195054054260254,0.088673435151577
1772515169653009700,9.482009765625,-0.041950225830078125,-0.06192314624786377,0.11116386950016022
1772515169663050200,9.49205029296875,0.05278205871582031,-0.05980181694030762,0.08226494491100311
1772515169673099000,9.50209912109375,0.07540512084960938,-0.06773698329925537,0.020812518894672394
1772515169683147000,9.51214697265625,0.07428646087646484,-0.08134937286376953,-0.030450478196144104
1772515169693195800,9.52219580078125,0.05920696258544922,-0.05325603485107422,-0.005722083151340485
1772515169703236900,9.53223681640625,0.09629249572753906,-0.04516589641571045,0.027377083897590637
1772515169713284900,9.542284912109375,0.07170391082763672,-0.06646692752838135,0.06990080326795578
1772515169723333400,9.55233349609375,-0.03712940216064453,-0.041037678718566895,0.11768248677253723
1772515169733381400,9.56238134765625,-0.1394948959350586,-0.034575581550598145,0.14667630195617676
1772515169743428400,9.572428466796875,-0.2261667251586914,-0.032148003578186035,0.15289923548698425
1772515169753476000,9.58247607421875,-0.2645225524902344,-0.04260456562042236,0.16915911436080933
1772515169763524000,9.592524169921875,-0.3355112075805664,-0.003923773765563965,0.11537431180477142
1772515169773571800,9.60257177734375,-0.14674091339111328,-0.024622201919555664,0.057900264859199524
1772515169783616800,9.61261669921875,0.05761146545410156,-0.06783151626586914,-0.017639920115470886
1772515169793664300,9.622664306640624,0.16446781158447266,-0.04489600658416748,-0.09674696624279022
1772515169803696600,9.632696533203125,0.23677444458007812,-0.07532906532287598,-0.11342097073793411
1772515169813742600,9.64274267578125,0.24691200256347656,-0.06917130947113037,-0.021230369806289673
1772515169823804400,9.652804443359376,0.049971580505371094,-0.046079277992248535,0.004758961498737335
1772515169833852200,9.66285205078125,-0.18129730224609375,0.009190797805786133,-0.05404217541217804
1772515169843885000,9.672885009765626,-0.09814453125,-0.015101313591003418,-0.0947771817445755
1772515169853931300,9.68293115234375,0.15779399871826172,-0.033869266510009766,-0.04210204631090164
1772515169863980000,9.69297998046875,0.15067768096923828,-0.02526402473449707,0.010083742439746857
1772515169874026500,9.703026611328125,-0.016309738159179688,-0.022214531898498535,0.0009355098009109497
1772515169884083200,9.713083251953124,-0.0958547592163086,-0.04687142372131348,-0.026762284338474274
1772515169894131000,9.723130859375,-0.047100067138671875,-0.05127429962158203,0.025851838290691376
1772515169904177700,9.733177734375,0.024377822875976562,-0.04147648811340332,0.059338442981243134
1772515169914225200,9.74322509765625,-0.013596534729003906,-0.0651082992553711,0.008491314947605133
1772515169924259800,9.753259765625,-0.027406692504882812,-0.08363878726959229,-0.002812214195728302
1772515169934306000,9.76330615234375,-0.09287071228027344,-0.04956459999084473,0.010586455464363098
1772515169944363800,9.77336376953125,-0.20915603637695312,-0.0059441328048706055,-0.0037379860877990723
1772515169954411300,9.783411376953126,-0.22014808654785156,0.010193824768066406,0.010353028774261475
1772515169964449800,9.79344970703125,-0.1322917938232422,0.04158473014831543,0.038014113903045654
1772515169974496300,9.803496337890625,-0.055408477783203125,0.054218411445617676,0.055715255439281464
1772515169984545300,9.813545166015626,0.03896808624267578,0.03408098220825195,0.08245506137609482
1772515169994592000,9.823592041015624,0.17420101165771484,0.03752171993255615,0.0851212739944458
1772515170004639200,9.83363916015625,0.17554378509521484,0.08198237419128418,0.08790694922208786
1772515170014686000,9.84368603515625,0.11114883422851562,0.07260382175445557,0.039062269032001495
1772515170024731400,9.8537314453125,0.07146930694580078,0.025109410285949707,-0.028208062052726746
1772515170034777900,9.86377783203125,0.03719806671142578,-0.0076645612716674805,-0.09979592263698578
1772515170044841000,9.873841064453124,0.04591560363769531,-0.007125139236450195,-0.06780736893415451
1772515170054889200,9.88388916015625,0.0215606689453125,0.02617323398590088,0.029293179512023926
1772515170064921600,9.893921630859374,-0.03533172607421875,0.0776529312133789,0.07753995060920715
1772515170074968300,9.90396826171875,-0.05840778350830078,0.1053316593170166,0.1057506576180458
1772515170085015600,9.914015625,-0.005852699279785156,0.11902236938476562,0.11888125538825989
1772515170095062300,9.924062255859376,0.008174896240234375,0.057045936584472656,0.065804123878479
1772515170105112000,9.934112060546875,0.02199840545654297,0.042990922927856445,-0.009778212755918503
1772515170115159000,9.944158935546875,0.04503917694091797,0.07135367393493652,-0.07462495565414429
1772515170125209000,9.954208984375,0.02542400360107422,0.04675722122192383,-0.10511858016252518
1772515170135256300,9.96425634765625,-0.04089069366455078,0.06926131248474121,-0.11098698526620865
1772515170145309200,9.97430908203125,-0.04020977020263672,0.07276153564453125,-0.14528155326843262
1772515170155357200,9.984357177734376,0.031045913696289062,0.04354977607727051,-0.1045883297920227
1772515170165407000,9.994406982421875,0.10579204559326172,0.04799175262451172,0.005735408514738083
1772515170175455000,10.004455078125,0.13702678680419922,0.06578671932220459,0.10926438868045807
1772515170185488000,10.01448779296875,0.04542827606201172,0.05433499813079834,0.11211800575256348
1772515170195534300,10.024534423828126,-0.021066665649414062,0.047583937644958496,0.11439107358455658
1772515170205581000,10.0345810546875,-0.08175849914550781,0.008084774017333984,0.12570513784885406
1772515170215627500,10.04462744140625,-0.10855770111083984,-0.049094319343566895,0.127655029296875
1772515170225674000,10.054674072265625,-0.08798503875732422,-0.0807805061340332,0.1065402626991272
1772515170235720700,10.064720703125,-0.0019464492797851562,-0.12065935134887695,0.08136434853076935
1772515170245772300,10.074772216796875,0.06382083892822266,-0.11279070377349854,0.03356102854013443
1772515170255819300,10.0848193359375,0.09088611602783203,-0.14312314987182617,-0.013328991830348969
1772515170265879600,10.094879638671875,0.08459186553955078,-0.1732475757598877,-0.04124883562326431
1772515170275928000,10.104927978515626,0.059619903564453125,-0.15137267112731934,-0.027203354984521866
1772515170286009900,10.115009765625,0.03506946563720703,-0.1251509189605713,0.05648583918809891
1772515170296061400,10.1250615234375,-0.0032100677490234375,-0.08984887599945068,0.13840097188949585
1772515170306050600,10.135050537109375,-0.040877342224121094,-0.021981000900268555,0.17619717121124268
1772515170316096000,10.145095947265625,-0.06383514404296875,-0.006743907928466797,0.15202586352825165
1772515170326146300,10.155146240234375,-0.058203697204589844,0.008530139923095703,0.10019171237945557
1772515170336192300,10.165192138671875,-0.04804706573486328,-0.03236091136932373,0.011378213763237
1772515170346240500,10.175240478515626,0.008923530578613281,-0.03420090675354004,-0.010635249316692352
1772515170356286700,10.18528662109375,0.064910888671875,-0.031097054481506348,-0.03185855224728584
1772515170366337500,10.195337646484376,0.06351566314697266,-0.033149123191833496,-0.0564836747944355
1772515170376384300,10.20538427734375,0.0810394287109375,-0.03085613250732422,-0.09016105532646179
1772515170386438100,10.215438232421874,0.07010841369628906,-0.03390312194824219,-0.038215477019548416
1772515170396485600,10.225485595703125,0.021759033203125,0.02381443977355957,0.046680137515068054
1772515170406524400,10.2355244140625,-0.03985309600830078,0.028370022773742676,0.08355212211608887
1772515170416571000,10.24557080078125,-0.0721750259399414,0.02803635597229004,0.11086948961019516
1772515170426620700,10.25562060546875,-0.05687522888183594,0.0041550397872924805,0.09109979122877121
1772515170436667400,10.26566748046875,-0.04183387756347656,-0.01462697982788086,0.06725838780403137
1772515170446713900,10.2757138671875,-0.11183929443359375,-0.05644404888153076,0.07324308156967163
1772515170456760600,10.285760498046875,-0.1619119644165039,-0.040666937828063965,0.028225407004356384
1772515170466808800,10.295808837890625,-0.1312723159790039,-0.03347122669219971,-0.011303335428237915
1772515170476855800,10.305855712890626,-0.04947948455810547,0.016882658004760742,-0.008412651717662811
1772515170486898700,10.315898681640626,0.03089427947998047,0.05738174915313721,0.01762557029724121
1772515170496945200,10.325945068359376,0.1288471221923828,0.07787060737609863,0.06131087243556976
1772515170506995500,10.335995361328125,0.14525794982910156,0.10182249546051025,0.057274483144283295
1772515170517042200,10.346042236328126,0.11444282531738281,0.11034572124481201,0.10095246881246567
1772515170527090700,10.356090576171875,0.04653358459472656,0.08065211772918701,0.07809019088745117
1772515170537137700,10.3661376953125,-0.029661178588867188,0.06086921691894531,-0.000863395631313324
1772515170547201000,10.376200927734375,0.02722930908203125,0.008661150932312012,-0.05561676621437073
1772515170557249800,10.386249755859374,0.09261035919189453,-0.01922750473022461,-0.10086590051651001
1772515170567294000,10.3962939453125,0.06751632690429688,-0.004767417907714844,-0.06082891672849655
1772515170577342200,10.40634228515625,0.04292011260986328,0.023081064224243164,-0.07373025268316269
1772515170587387600,10.4163876953125,0.05642414093017578,-0.006131529808044434,-0.04977089911699295
1772515170597435400,10.426435302734374,0.06978416442871094,-0.021227598190307617,0.0014479979872703552
1772515170607465500,10.436465576171875,0.017122268676757812,0.005509853363037109,0.07551261782646179
1772515170617511700,10.44651171875,-0.06286811828613281,0.03620707988739014,0.11558075994253159
1772515170627563500,10.4565634765625,-0.1180257797241211,0.04314684867858887,0.13128328323364258
1772515170637610000,10.46660986328125,-0.1770496368408203,0.022217988967895508,0.1045091450214386
1772515170647657000,10.476656982421876,-0.22115039825439453,0.012253403663635254,0.06430208683013916
1772515170657703400,10.486703369140624,-0.2506227493286133,0.013368606567382812,0.039152830839157104
1772515170667753000,10.4967529296875,-0.16682720184326172,0.025380253791809082,0.04741363972425461
1772515170677800000,10.506800048828126,-0.07987785339355469,0.024058222770690918,0.013851158320903778
1772515170687833600,10.51683349609375,-0.050975799560546875,0.028057575225830078,-0.05627662315964699
1772515170697879300,10.52687939453125,0.07628250122070312,0.027589797973632812,-0.08320373296737671
1772515170707940900,10.53694091796875,0.15912628173828125,0.059604525566101074,-0.04446905106306076
1772515170717988000,10.546988037109376,0.2407217025756836,0.076163649559021,-0.03566812723875046
1772515170728033800,10.55703369140625,0.32593345642089844,0.08604705333709717,-0.02815108373761177
1772515170738080800,10.567080810546875,0.29237937927246094,0.08395326137542725,-0.007126927375793457
1772515170748138800,10.577138671875,0.2644338607788086,0.07498049736022949,-0.04357823729515076
1772515170758187000,10.58718701171875,0.11012840270996094,0.05003368854522705,-0.03219551593065262
1772515170768225300,10.597225341796875,-0.06031608581542969,0.0011668205261230469,0.007405020296573639
1772515170778272500,10.6072724609375,-0.2044200897216797,-0.01362919807434082,0.037140391767024994
1772515170788307200,10.61730712890625,-0.30397701263427734,-0.003126382827758789,0.06659954786300659
1772515170798353200,10.627353271484376,-0.2938709259033203,-0.00503230094909668,0.09136535972356796
1772515170808428000,10.637427978515625,-0.25129032135009766,-0.03316700458526611,0.1164541020989418
1772515170818476800,10.647476806640626,-0.13908863067626953,-0.054236531257629395,0.08988985419273376
1772515170828523000,10.65752294921875,-0.0006647109985351562,-0.05513191223144531,0.0786176398396492
1772515170838571800,10.66757177734375,0.04127025604248047,-0.03247642517089844,0.09206783026456833
1772515170848613600,10.677613525390624,0.05903339385986328,-0.03425180912017822,0.06833110749721527
1772515170858661600,10.68766162109375,0.12368106842041016,-0.041309475898742676,0.030625708401203156
1772515170868704500,10.69770458984375,0.130889892578125,-0.025605320930480957,0.031001225113868713
1772515170878752000,10.707751953125,0.006237983703613281,-0.020282268524169922,-0.001058630645275116
1772515170888806100,10.71780615234375,-0.041024208068847656,-0.024265646934509277,-0.05651151016354561
1772515170898854100,10.727854248046874,-0.007531166076660156,0.0006771087646484375,-0.03208722919225693
1772515170908896500,10.737896484375,0.048923492431640625,0.0206986665725708,0.024244166910648346
1772515170918944000,10.747944091796874,0.1233530044555664,0.030468225479125977,0.04629093408584595
1772515170928992300,10.7579921875,0.11662960052490234,0.010917305946350098,0.058914028108119965
1772515170939039700,10.768039794921876,0.05366039276123047,0.00010275840759277344,0.07669706642627716
1772515170949083400,10.77808349609375,-0.11177921295166016,-0.0063283443450927734,0.06659414619207382
1772515170959130600,10.788130615234374,-0.16157913208007812,-0.002438664436340332,0.01913752406835556
1772515170969183000,10.798182861328126,-0.12591266632080078,-0.00251924991607666,-0.01844136416912079
1772515170979230700,10.808230712890625,-0.10503101348876953,-0.030448198318481445,-0.026857808232307434
1772515170989276400,10.8182763671875,-0.10340309143066406,-0.01513373851776123,-0.006083004176616669
1772515170999324000,10.828323974609376,-0.1537017822265625,0.00523221492767334,0.006058521568775177
1772515171009357000,10.838357177734375,-0.16096210479736328,0.012223958969116211,-0.004575558006763458
1772515171019403300,10.8484033203125,-0.012882232666015625,-0.0033429861068725586,0.0036352425813674927
1772515171029449700,10.85844970703125,0.12325382232666016,-0.051206350326538086,-0.016674146056175232
1772515171039496000,10.868495849609374,0.18658924102783203,-0.03765535354614258,0.0055006518959999084
1772515171049545500,10.87854541015625,0.18785953521728516,-0.006792902946472168,0.069283626973629
1772515171059592000,10.888592041015626,0.09980201721191406,0.013134002685546875,0.018556684255599976
1772515171069639700,10.8986396484375,0.05093669891357422,-0.005242347717285156,-0.0698486790060997
1772515171079686400,10.908686279296875,0.03587055206298828,-0.042238712310791016,-0.07303254306316376
1772515171089732000,10.918732177734375,0.006922721862792969,-0.031421661376953125,-0.020612016320228577
1772515171099778600,10.928778564453125,0.053816795349121094,0.026205897331237793,-0.0028015822172164917
1772515171109825000,10.938824951171876,0.17067527770996094,0.04450845718383789,0.013635687530040741
1772515171119871700,10.948871826171874,0.1116189956665039,0.01842796802520752,0.025560438632965088
1772515171129920500,10.95892041015625,0.011362075805664062,0.024442672729492188,-0.0423043929040432
1772515171139967200,10.96896728515625,-0.11073875427246094,0.01604008674621582,-0.09473210573196411
1772515171150024000,10.97902392578125,-0.19324398040771484,-0.010344386100769043,-0.0896652489900589
1772515171160071700,10.98907177734375,-0.30283451080322266,0.01211082935333252,-0.03673133999109268
1772515171170125300,10.999125244140625,-0.3167400360107422,0.0456160306930542,-0.0215238556265831
1772515171180173600,11.009173583984374,-0.13767242431640625,0.07585608959197998,-0.005915947258472443
1772515171190218500,11.019218505859374,0.014738082885742188,0.05459725856781006,0.00559205561876297
1772515171200266500,11.0292666015625,0.14582252502441406,0.05212712287902832,0.04637603461742401
1772515171210308000,11.03930810546875,0.2042694091796875,0.09087252616882324,0.05434928089380264
1772515171220355600,11.04935546875,0.21016216278076172,0.10402882099151611,0.01502273976802826
1772515171230391800,11.059391845703125,0.16912078857421875,0.07299089431762695,0.0414237305521965
1772515171240438000,11.06943798828125,0.14777469635009766,0.055492520332336426,0.09004542231559753
1772515171250493400,11.079493408203126,0.06573295593261719,0.037276625633239746,0.0666043683886528
1772515171260540700,11.089540771484375,-0.005469322204589844,-0.01389932632446289,0.03793378919363022
1772515171270581800,11.099581787109376,-0.04728221893310547,-0.08265674114227295,0.027419738471508026
1772515171280628200,11.109628173828124,-0.12149333953857422,-0.059905171394348145,0.06857484579086304
1772515171290675200,11.11967529296875,-0.1286945343017578,-0.027117013931274414,0.08023802191019058
1772515171300721700,11.1297216796875,-0.08406734466552734,0.0010099411010742188,0.09131406247615814
1772515171310771700,11.139771728515624,-0.08263874053955078,-0.02263319492340088,0.08838680386543274
1772515171320818700,11.149818603515625,-0.03896522521972656,-0.03577244281768799,0.06698175519704819
1772515171330865400,11.159865478515625,0.01802539825439453,-0.024651169776916504,0.055765844881534576
1772515171340912400,11.169912353515626,0.012872695922851562,-0.02804112434387207,0.01287660002708435
1772515171350968800,11.17996875,0.054894447326660156,-0.054912447929382324,-0.08135353773832321
1772515171361016600,11.1900166015625,0.21870899200439453,-0.08172810077667236,-0.10430697351694107
1772515171371053800,11.2000537109375,0.19639301300048828,-0.06730389595031738,-0.046159833669662476
1772515171381100800,11.210100830078124,-0.013675689697265625,-0.021654605865478516,0.007088467478752136
1772515171391159000,11.220158935546875,-0.12138843536376953,-0.00010859966278076172,0.011916972696781158
1772515171401207000,11.23020703125,-0.17095279693603516,-0.010875701904296875,0.049293532967567444
1772515171411240000,11.240239990234375,-0.1963796615600586,-0.04350411891937256,0.04385428875684738
1772515171421286400,11.250286376953126,-0.15573596954345703,-0.05495595932006836,0.03372804820537567
1772515171431333600,11.260333740234374,-0.012373924255371094,-0.06491613388061523,0.04229050874710083
1772515171441380400,11.27038037109375,0.03436279296875,-0.05547606945037842,0.0652371495962143
1772515171451441700,11.280441650390625,0.08509063720703125,-0.013633131980895996,0.04560122638940811
1772515171461489700,11.29048974609375,0.18689823150634766,-0.020379304885864258,0.044357217848300934
1772515171471541200,11.300541259765625,0.2118997573852539,-0.01438593864440918,0.05704452842473984
1772515171481589800,11.31058984375,0.03894805908203125,0.013547062873840332,0.06033370643854141
1772515171491620000,11.3206201171875,-0.008662223815917969,0.012558698654174805,0.01134984940290451
1772515171501666800,11.330666748046875,0.043346405029296875,0.021404504776000977,0.009851321578025818
1772515171511714000,11.340714111328126,0.04744911193847656,0.029807329177856445,0.055302925407886505
1772515171521760500,11.350760498046874,-0.00023937225341796875,0.028150439262390137,0.07678438723087311
1772515171531807200,11.36080712890625,0.02823352813720703,-0.006647467613220215,0.07927929610013962
1772515171541854000,11.37085400390625,0.023313522338867188,-0.008216500282287598,0.05872634798288345
1772515171551922700,11.380922607421875,-0.04743480682373047,-0.03812122344970703,0.04850998520851135
1772515171561971700,11.3909716796875,-0.13123035430908203,-0.057509660720825195,0.06746155768632889
1772515171571996200,11.40099609375,-0.21851158142089844,-0.009557962417602539,0.07723747938871384
1772515171582042400,11.41104248046875,-0.1821575164794922,0.02035212516784668,0.09166784584522247
1772515171592089600,11.421089599609376,-0.07122516632080078,0.013082265853881836,0.09218277782201767
1772515171602136000,11.431135986328124,0.0943155288696289,-0.007905721664428711,0.05528564751148224
1772515171612197000,11.441197021484374,0.19129467010498047,-0.03876328468322754,-0.013578087091445923
1772515171622245000,11.4512451171875,0.10792160034179688,-0.03744041919708252,-0.0431191623210907
1772515171632281300,11.46128125,0.040192604064941406,-0.013387560844421387,-0.0965195819735527
1772515171642328000,11.471328125,0.08665657043457031,-0.02769339084625244,-0.10788659006357193
1772515171652385500,11.481385498046874,0.0853424072265625,-0.00458216667175293,-0.020934395492076874
1772515171662433300,11.491433349609375,-0.042992591857910156,0.03167414665222168,0.03164809197187424
1772515171672470800,11.501470703125,-0.16453933715820312,0.07714283466339111,0.017363809049129486
1772515171682517500,11.511517578125,-0.02524280548095703,0.057033538818359375,-0.021225541830062866
1772515171692575200,11.5215751953125,0.08816242218017578,0.009212255477905273,-0.003030255436897278
1772515171702623200,11.531623291015626,0.03965473175048828,0.027613162994384766,-0.017572641372680664
1772515171712657400,11.541657470703125,-0.03156280517578125,0.021967053413391113,-0.04081958159804344
1772515171722704100,11.5517041015625,0.082061767578125,-0.026061058044433594,-0.04056670889258385
1772515171732749800,11.561749755859376,0.15151500701904297,-0.03631711006164551,-0.011611513793468475
1772515171742796300,11.57179638671875,0.022264480590820312,0.013308405876159668,-0.014812692999839783
1772515171752841200,11.58184130859375,-0.1424875259399414,0.00550389289855957,-0.027077704668045044
1772515171762887400,11.591887451171875,-0.08804130554199219,-0.005875825881958008,0.040076300501823425
1772515171772950500,11.601950439453125,-0.133514404296875,0.007275223731994629,0.05052642524242401
1772515171782998500,11.61199853515625,-0.10301589965820312,0.002177000045776367,0.051551803946495056
1772515171793042700,11.622042724609376,-0.05902385711669922,-0.025582075119018555,0.08115634322166443
1772515171803090200,11.632090087890624,-0.034668922424316406,-0.043068885803222656,0.08774731308221817
1772515171813144000,11.64214404296875,-0.07668495178222656,-0.04123580455780029,0.029917821288108826
1772515171823192300,11.6521923828125,-0.16517066955566406,-0.03422749042510986,-0.04443975165486336
1772515171833224700,11.662224609375,-0.0876016616821289,-0.03525722026824951,-0.1224779486656189
1772515171843271400,11.672271484375,0.1675090789794922,-0.044977426528930664,-0.11093543469905853
1772515171853328100,11.682328125,0.31498241424560547,-0.03228139877319336,-0.029601842164993286
1772515171863375600,11.692375732421874,0.239044189453125,0.010863065719604492,0.017354533076286316
1772515171873403600,11.702403564453125,0.0657501220703125,0.023337721824645996,-0.02163238450884819
1772515171883431400,11.712431396484375,-0.03403186798095703,0.02158200740814209,-0.0143878273665905
1772515171893475600,11.7224755859375,-0.019225120544433594,0.03929269313812256,0.023877069354057312
1772515171903514400,11.732514404296875,0.03771686553955078,0.009622693061828613,0.09366364777088165
1772515171923624400,11.75262451171875,-0.08020877838134766,-0.03521847724914551,0.05412779375910759
1772515171943719700,11.7727197265625,-0.0817422866821289,-0.006395578384399414,0.007929854094982147
1772515171953789000,11.782788818359375,-0.014591217041015625,-0.010166645050048828,0.03232558071613312
1772515171963838500,11.79283837890625,0.06084251403808594,-0.01848626136779785,0.033000290393829346
1772515171973879000,11.802879150390625,0.0973958969116211,-0.0316770076751709,-0.027533719316124916
1772515171983927600,11.812927490234374,0.0957193374633789,-0.04494619369506836,-0.05935191363096237
1772515171993947600,11.82294775390625,0.10362434387207031,-0.06830728054046631,0.012642402201890945
1772515172003996200,11.83299609375,0.007899284362792969,-0.02595818042755127,0.08354772627353668
1772515172014066700,11.843066650390625,-0.05794715881347656,0.0013556480407714844,0.08235734701156616
1772515172024117200,11.8531171875,-0.03796958923339844,-0.004545092582702637,0.08556972444057465
1772515172034162000,11.863161865234375,0.014591217041015625,-0.038298964500427246,0.060307007282972336
1772515172044211700,11.873211669921876,0.005045890808105469,-0.06668293476104736,0.04060457646846771
1772515172054258200,11.883258056640624,-0.013790130615234375,-0.05201447010040283,0.07348015904426575
1772515172064307500,11.893307373046875,-0.018218040466308594,-0.05151653289794922,0.08718903362751007
1772515172074331000,11.903330810546874,-0.022588729858398438,-0.05092942714691162,0.06789753586053848
1772515172084377900,11.9133779296875,0.0012760162353515625,-0.03562808036804199,0.04887509346008301
1772515172094452500,11.923452392578126,0.020003318786621094,-0.025089383125305176,0.08669059723615646
1772515172104502000,11.933501953125,0.000736236572265625,-0.014631032943725586,0.06736075133085251
1772515172114539300,11.943539306640625,0.06182384490966797,0.005167603492736816,0.05741418898105621
1772515172124587800,11.953587890625,0.05602073669433594,0.04317188262939453,0.0846869945526123
1772515172134633200,11.96363330078125,0.05981159210205078,0.06591355800628662,0.10625629872083664
1772515172144681500,11.973681396484375,0.0777273178100586,0.045494794845581055,0.15559279918670654
1772515172154740700,11.98374072265625,0.09550666809082031,0.05726432800292969,0.23795001208782196
1772515172164790000,11.9937900390625,-0.10352802276611328,0.035263657569885254,0.15632569789886475
1772515172174847500,12.003847412109375,-0.15340518951416016,0.014420628547668457,0.08168750256299973
1772515172184897500,12.0138974609375,-0.15082359313964844,-0.047351956367492676,0.0037735402584075928
1772515172194931000,12.023930908203125,-0.11076545715332031,-0.07883846759796143,-0.063592329621315
1772515172204979500,12.0339794921875,0.04620933532714844,-0.019429564476013184,-0.10235731303691864
1772515172215035100,12.04403515625,0.12998294830322266,-0.027225375175476074,-0.06980680674314499
1772515172225084200,12.054084228515626,0.0994882583618164,-0.002829313278198242,-0.0275128073990345
1772515172235123700,12.064123779296875,0.017844200134277344,0.029677271842956543,-0.07542945444583893
1772515172245172000,12.074171875,-0.0011920928955078125,0.023777484893798828,-0.11902740597724915
1772515172255222800,12.084222900390625,0.02720928192138672,0.02719855308532715,-0.09242156893014908
1772515172265271300,12.094271240234375,0.022269248962402344,0.06292593479156494,-0.014685515314340591
1772515172275312600,12.104312744140625,-0.02962970733642578,0.08834373950958252,0.03382817283272743
1772515172285360400,12.1143603515625,-0.052412986755371094,0.11804676055908203,-0.002864845097064972
1772515172295412700,12.124412841796875,-0.027729034423828125,0.10016894340515137,-0.034251388162374496
1772515172305461000,12.1344609375,-0.02707672119140625,0.050130605697631836,-0.1072765439748764
1772515172315503600,12.144503662109376,-0.012323379516601562,0.015154838562011719,-0.17914631962776184
1772515172325551400,12.15455126953125,0.053948402404785156,-0.00020074844360351562,-0.18887412548065186
1772515172335596300,12.16459619140625,0.11913204193115234,-0.0106889009475708,-0.14225156605243683
1772515172345643800,12.174643798828125,0.20695877075195312,-0.0174943208694458,-0.07824069261550903
1772515172355711500,12.18471142578125,0.1852560043334961,0.0025556087493896484,0.017795661464333534
1772515172365760800,12.1947607421875,0.008732795715332031,0.006848931312561035,0.06108997389674187
1772515172375758300,12.20475830078125,-0.12244224548339844,0.015606522560119629,0.05656875669956207
1772515172385808000,12.214807861328126,-0.18096637725830078,-0.021792054176330566,0.08989598602056503
1772515172405898500,12.2348984375,-0.22101116180419922,-0.03033912181854248,0.10840502381324768
1772515172415911400,12.244911376953125,-0.21259498596191406,-0.030005574226379395,0.132143035531044
1772515172436010000,12.265010009765625,-0.023113250732421875,-0.0436629056930542,0.053571682423353195
1772515172446100500,12.2751005859375,0.118072509765625,-0.06824922561645508,-0.0012342026457190514
1772515172456153900,12.28515380859375,0.18171119689941406,-0.03683304786682129,-0.03168531134724617
1772515172466194000,12.29519384765625,0.2538928985595703,-0.035393714904785156,-0.00048102112486958504
1772515172476245800,12.305245849609374,0.19801902770996094,-0.02165353298187256,0.03989390283823013
1772515172486265000,12.31526513671875,0.0067272186279296875,0.014105677604675293,0.08482638001441956
1772515172496313900,12.32531396484375,-0.15784740447998047,0.0493621826171875,0.10039795935153961
