time,seconds_elapsed,z,y,x
1772515160177548800,0.006548828125,0.004260932095348835,0.048468101769685745,-0.111050546169281
1772515160188595700,0.017595703125,-0.009587096981704235,0.07935985922813416,-0.1014634445309639
1772515160208662500,0.03766259765625,-0.03621792420744896,0.14220860600471497,-0.010918638668954372
1772515160218700000,0.047699951171875,-0.04047885537147522,0.15499140322208405,0.03275591507554054
1772515160228747000,0.0577470703125,-0.04793548583984375,0.1283605843782425,0.05299534276127815
1772515160258883800,0.0878837890625,-0.02982652559876442,0.050598569214344025,0.018907885998487473
1772515160278941200,0.107941162109375,-0.03515268862247467,0.01877473294734955,-0.024766668677330017
1772515160289036000,0.1180361328125,-0.01704372838139534,-0.0003994623839389533,-0.03541899845004082
1772515160299083000,0.1280830078125,0.015845341607928276,-0.03022598661482334,-0.031158065423369408
1772515160309135000,0.138135009765625,0.025432437658309937,-0.0025299284607172012,0.00399462366476655
1772515160319182000,0.14818212890625,0.026497671380639076,0.009187635034322739,0.03169068321585655
1772515160339295200,0.168295166015625,0.031823836266994476,0.033554840832948685,0.06684337556362152
1772515160349344500,0.178344482421875,0.037150003015995026,0.038881003856658936,0.07536523789167404
1772515160359393300,0.188393310546875,0.047802332788705826,0.034620072692632675,0.07323476672172546
1772515160369442300,0.1984423828125,0.059519894421100616,0.037815771996974945,0.06577813625335693
1772515160379485400,0.2084853515625,0.06484606117010117,0.033554840832948685,0.04553871229290962
1772515160389534000,0.218533935546875,0.06804175674915314,0.02942706272006035,0.024234050884842873
1772515160399565800,0.22856591796875,0.07336792349815369,0.034620072692632675,0.012516488321125507
1772515160409612500,0.238612548828125,0.07869409024715424,0.02836182899773121,-0.0023967742454260588
1772515160419672600,0.248672607421875,0.08402025699615479,0.02197043038904667,-0.0077229393646121025
1772515160429720600,0.258720458984375,0.08402025699615479,0.031424373388290405,0.002929390873759985
1772515160439755500,0.268755615234375,0.07762885838747025,0.037815771996974945,0.017842652276158333
1772515160449802500,0.278802490234375,0.07017222791910172,0.032489608973264694,0.021038351580500603
1772515160459848400,0.288848388671875,0.0723026916384697,0.01983996480703354,0.0061250897124409676
1772515160469895200,0.298895263671875,0.07443315535783768,0.005991935729980469,-0.016244804486632347
1772515160479950000,0.3089501953125,0.0723026916384697,-0.006790860556066036,-0.030092833563685417
1772515160489997600,0.31899755859375,0.06378082931041718,0.000665770610794425,-0.022636201232671738
1772515160500071200,0.3290712890625,0.05312849581241608,0.01664426550269127,0.002929390873759985
1772515160510121200,0.339121337890625,0.03608476743102074,-0.0025299284607172012,0.03914731368422508
1772515160520130300,0.34913037109375,-0.0106523297727108,-0.014247491955757141,0.04873441159725189
1772515160530176500,0.359176513671875,0,0.013448567129671574,0.06577813625335693
1772515160540263400,0.369263427734375,0.0053261648863554,-0.02703028731048107,0.06364767253398895
1772515160550313700,0.379313720703125,-0.0213046595454216,0.000665770610794425,0.04340824484825134
1772515160560355300,0.389355224609375,-0.01171756349503994,-0.00359516148455441,0.05512581020593643
1772515160570404600,0.399404541015625,-0.03408745676279068,-0.03448691964149475,0.030625449493527412
1772515160580447500,0.409447509765625,-0.05752258375287056,-0.04194355010986328,-0.00133154122158885
1772515160590496300,0.419496337890625,-0.0532616525888443,-0.04833494871854782,-0.017310036346316338
1772515160600543000,0.42954296875,-0.05113118514418602,-0.05685681104660034,-0.024766668677330017
1772515160610591500,0.439591552734375,-0.06604444980621338,-0.06431344151496887,-0.031158065423369408
1772515160620612000,0.449612060546875,-0.08308817446231842,-0.06750914454460144,-0.03541899845004082
1772515160630657800,0.45965771484375,-0.09800143539905548,-0.07283531129360199,-0.04713656008243561
1772515160640733400,0.4697333984375,-0.09906667470932007,-0.07816147059202194,-0.06204982474446297
1772515160650782200,0.4797822265625,-0.08308817446231842,-0.08455286920070648,-0.06737598776817322
1772515160660828000,0.489827880859375,-0.0639139786362648,-0.08348763734102249,-0.05778888985514641
1772515160670876400,0.49987646484375,-0.05432688444852829,-0.06537867337465286,-0.027962366119027138
1772515160680921600,0.509921630859375,-0.04900071769952774,-0.04513924941420555,0.013581721112132072
1772515160690969900,0.519969970703125,-0.04473978653550148,-0.03022598661482334,0.04447348043322563
1772515160701012700,0.5300126953125,-0.04047885537147522,-0.01957365684211254,0.05512581020593643
1772515160711060200,0.540060302734375,-0.02236989326775074,-0.008921326138079166,0.04553871229290962
1772515160721090800,0.5500908203125,-0.0063913981430232525,-0.0025299284607172012,0.021038351580500603
1772515160731136500,0.560136474609375,-0.0053261648863554,0.000665770610794425,-0.010918638668954372
1772515160741196800,0.57019677734375,-0.0106523297727108,0.0017310036346316338,-0.03541899845004082
1772515160751244000,0.580244140625,-0.0213046595454216,0.007057168986648321,-0.04926702752709389
1772515160761280800,0.59028076171875,-0.03302222490310669,0.01983996480703354,-0.05565842613577843
1772515160771327000,0.600326904296875,-0.0426093190908432,0.045272402465343475,-0.06524552404880524
1772515160781375000,0.610375,-0.04367455467581749,0.07829462736845016,-0.07802832126617432
1772515160791421400,0.62042138671875,-0.03515268862247467,0.10492545366287231,-0.08441971987485886
1772515160801478400,0.630478515625,-0.02343512699007988,0.1166430190205574,-0.08655018359422684
1772515160811526000,0.64052587890625,-0.012782796286046505,0.11025162041187286,-0.0908111184835434
1772515160821563400,0.6505634765625,-0.0021304660476744175,0.0953383520245552,-0.09613727778196335
1772515160831609900,0.66060986328125,0.0053261648863554,0.07616416364908218,-0.10252867639064789
1772515160841655600,0.670655517578125,0.0106523297727108,0.056989967823028564,-0.09507204592227936
1772515160851702000,0.680701904296875,0.01171756349503994,0.042076703161001205,-0.0695064514875412
1772515160861751300,0.690751220703125,0.012649642303586006,0.031424373388290405,-0.03861469775438309
1772515160871798000,0.700798095703125,0.020106272771954536,0.030359141528606415,-0.009853405877947807
1772515160881859000,0.710859130859375,0.022236740216612816,0.032489608973264694,0.010386021807789803
1772515160891907300,0.7209072265625,0.017975807189941406,0.030359141528606415,0.018907885998487473
1772515160901938400,0.7309384765625,0.00852186419069767,0.01877473294734955,0.021038351580500603
1772515160911985000,0.74098486328125,-0.0053261648863554,0.014513799920678139,0.03169068321585655
1772515160922032400,0.751032470703125,-0.02343512699007988,0.01770949922502041,0.04127778112888336
1772515160932079000,0.7610791015625,-0.03089175745844841,0.02090519852936268,0.04234301298856735
1772515160942125800,0.771125732421875,-0.02236989326775074,0.02303566411137581,0.030625449493527412
1772515160952172500,0.781172607421875,-0.0063913981430232525,0.02197043038904667,0.011451254598796368
1772515160962221300,0.79122119140625,0.00852186419069767,0.02090519852936268,-0.0002663082559593022
1772515160972268300,0.801268310546875,0.013714875094592571,0.02623136341571808,0.0050598569214344025
1772515160982316300,0.81131640625,0.012649642303586006,0.047402869910001755,0.025299284607172012
1772515160992363300,0.82136328125,0.016910573467612267,0.06551183015108109,0.04234301298856735
1772515161002409200,0.8314091796875,0.022236740216612816,0.0740336924791336,0.04447348043322563
1772515161012456000,0.8414560546875,0.027562905102968216,0.0740336924791336,0.03595161437988281
1772515161022505700,0.851505615234375,0.021171506494283676,0.06977276504039764,0.03382114693522453
1772515161032553000,0.861552978515625,0.0063913981430232525,0.07935985922813416,0.0476691760122776
1772515161042612000,0.871612060546875,-0.0159784946590662,0.09427312016487122,0.07216953486204147
1772515161052660200,0.88166015625,-0.0319569893181324,0.09853405505418777,0.08708280324935913
1772515161062705200,0.891705078125,-0.03408745676279068,0.09107742458581924,0.07856093347072601
1772515161072753200,0.901753173828125,-0.02876129187643528,0.06977276504039764,0.05512581020593643
1772515161082801200,0.91180126953125,-0.02236989326775074,0.052729032933712006,0.029560215771198273
1772515161092849200,0.92184912109375,-0.02450035884976387,0.034620072692632675,0.010386021807789803
1772515161102880500,0.931880615234375,-0.02876129187643528,0.02197043038904667,0.013581721112132072
1772515161112927000,0.941927001953125,-0.03621792420744896,0.02090519852936268,0.03488638252019882
1772515161122986800,0.95198681640625,-0.04154408723115921,0.02729659713804722,0.05938674136996269
1772515161133034500,0.962034423828125,-0.0426093190908432,0.02942706272006035,0.06684337556362152
1772515161143069000,0.97206884765625,-0.03408745676279068,0.02303566411137581,0.05512581020593643
1772515161153115100,0.982115234375,-0.02236989326775074,0.01983996480703354,0.03382114693522453
1772515161163167000,0.9921669921875,-0.0106523297727108,0.02090519852936268,0.00719032296910882
1772515161173214000,1.0022138671875,0.0010652330238372087,0.02623136341571808,-0.014114337973296642
1772515161183259000,1.0122587890625,0.009587096981704235,0.02516612969338894,-0.023701434955000877
1772515161193305300,1.022305419921875,0.017975807189941406,0.012383334338665009,-0.023701434955000877
1772515161203353300,1.032353271484375,0.027562905102968216,-0.007856093347072601,-0.014114337973296642
1772515161213400300,1.042400390625,0.037150003015995026,-0.012117025442421436,0.00719032296910882
1772515161223448600,1.052448486328125,0.043541401624679565,-0.006790860556066036,0.026364516466856003
1772515161233495600,1.06249560546875,0.04993279650807381,-0.008921326138079166,0.04234301298856735
1772515161243555300,1.072555419921875,0.05632419511675835,-0.007856093347072601,0.05193011090159416
1772515161253603600,1.082603515625,0.059519894421100616,-0.004660394508391619,0.0583215095102787
1772515161263635500,1.092635498046875,0.058454662561416626,-0.0003994623839389533,0.06577813625335693
1772515161273682000,1.102681884765625,0.054193731397390366,0.004926702938973904,0.06471290439367294
1772515161283742000,1.112741943359375,0.050998032093048096,0.014513799920678139,0.05725627392530441
1772515161293790000,1.1227900390625,0.043541401624679565,0.02836182899773121,0.05512581020593643
1772515161303822800,1.13282275390625,0.03288906812667847,0.039946239441633224,0.05619104206562042
1772515161313869300,1.142869384765625,0.021171506494283676,0.041011471301317215,0.05299534276127815
1772515161323933400,1.152933349609375,0.013714875094592571,0.037815771996974945,0.04553871229290962
1772515161333981400,1.1629814453125,0.0106523297727108,0.033554840832948685,0.03808208182454109
1772515161344022500,1.1730224609375,0.0010652330238372087,0.02623136341571808,0.028494983911514282
1772515161354070000,1.183070068359375,-0.009587096981704235,0.02090519852936268,0.015712186694145203
1772515161364105200,1.193105224609375,-0.01704372838139534,0.015579032711684704,0.00399462366476655
1772515161374151700,1.203151611328125,-0.0159784946590662,0.010252867825329304,-0.0023967742454260588
1772515161384198700,1.21319873046875,-0.01384802907705307,0.01664426550269127,0.002929390873759985
1772515161394245000,1.2232451171875,-0.01491326279938221,0.02516612969338894,0.012516488321125507
1772515161404295400,1.23329541015625,-0.01491326279938221,0.031424373388290405,0.014646953903138638
1772515161414342100,1.243342041015625,-0.009587096981704235,0.038881003856658936,0.008255556225776672
1772515161424383500,1.253383544921875,-0.0031956990715116262,0.034620072692632675,-0.0034620072692632675
1772515161434429700,1.2634296875,0.0010652330238372087,0.02729659713804722,-0.011983871459960938
1772515161444483000,1.273483154296875,-0.0031956990715116262,0.02623136341571808,-0.00452724052593112
1772515161454529800,1.28352978515625,-0.01171756349503994,0.031424373388290405,0.013581721112132072
1772515161464577300,1.293577392578125,-0.02023942768573761,0.032489608973264694,0.025299284607172012
1772515161474624300,1.303624267578125,-0.02450035884976387,0.02623136341571808,0.026364516466856003
1772515161484670200,1.313670166015625,-0.02556559257209301,0.02197043038904667,0.021038351580500603
1772515161494717200,1.32371728515625,-0.0213046595454216,0.015579032711684704,0.011451254598796368
1772515161504763600,1.333763671875,-0.01171756349503994,0.013448567129671574,0.0007989247678779066
1772515161514810400,1.343810302734375,-0.00852186419069767,0.01877473294734955,-0.0077229393646121025
1772515161524860700,1.353860595703125,-0.01384802907705307,0.02303566411137581,-0.011983871459960938
1772515161534908000,1.363907958984375,-0.01810896210372448,0.02090519852936268,-0.018375270068645477
1772515161544967700,1.3739677734375,-0.02023942768573761,0.02197043038904667,-0.020505735650658607
1772515161555016000,1.384015869140625,-0.01704372838139534,0.02303566411137581,-0.019440501928329468
1772515161565053200,1.39405322265625,-0.01384802907705307,0.02410089783370495,-0.014114337973296642
1772515161575100700,1.4041005859375,-0.01384802907705307,0.02516612969338894,-0.0023967742454260588
1772515161585154600,1.414154541015625,-0.02023942768573761,0.02410089783370495,0.010386021807789803
1772515161595202600,1.42420263671875,-0.02556559257209301,0.01983996480703354,0.018907885998487473
1772515161605237200,1.4342373046875,-0.02876129187643528,0.011318100616335869,0.019973119720816612
1772515161615284000,1.444283935546875,-0.02982652559876442,0.0017310036346316338,0.016777420416474342
1772515161625331000,1.4543310546875,-0.02769605815410614,-0.008921326138079166,0.0061250897124409676
1772515161635377700,1.464377685546875,-0.02343512699007988,-0.01637795753777027,-0.005592473316937685
1772515161645436700,1.474436767578125,-0.02236989326775074,-0.01744319126009941,-0.010918638668954372
1772515161655484700,1.484484619140625,-0.02343512699007988,-0.014247491955757141,-0.014114337973296642
1772515161665522400,1.4945224609375,-0.02450035884976387,-0.008921326138079166,-0.010918638668954372
1772515161675569400,1.5045693359375,-0.03089175745844841,0.004926702938973904,0.0007989247678779066
1772515161685649700,1.514649658203125,-0.03941362351179123,0.01770949922502041,0.011451254598796368
1772515161695700000,1.524699951171875,-0.03728315606713295,0.02836182899773121,0.017842652276158333
1772515161705709300,1.534709228515625,-0.02450035884976387,0.030359141528606415,0.012516488321125507
1772515161715755500,1.544755615234375,-0.0159784946590662,0.01770949922502041,-0.0002663082559593022
1772515161725815800,1.55481591796875,-0.012782796286046505,0.000665770610794425,-0.008788172155618668
1772515161735863300,1.56486328125,-0.0106523297727108,-0.0014646954368799925,-0.006657706573605537
1772515161745915000,1.574914794921875,-0.00852186419069767,0.004926702938973904,0.002929390873759985
1772515161755963000,1.584962890625,-0.0063913981430232525,0.009187635034322739,0.0007989247678779066
1772515161766009300,1.59500927734375,-0.007456631399691105,0.000665770610794425,-0.0023967742454260588
1772515161776057000,1.60505712890625,-0.0053261648863554,-0.0014646954368799925,0.0050598569214344025
1772515161786102300,1.615102294921875,-0.004260932095348835,0.012383334338665009,0.025299284607172012
1772515161796149800,1.625149658203125,-0.0031956990715116262,0.02303566411137581,0.03382114693522453
1772515161806192400,1.6351923828125,-0.004260932095348835,0.02410089783370495,0.029560215771198273
1772515161816239600,1.645239501953125,-0.0021304660476744175,0.014513799920678139,0.023168819025158882
1772515161826287400,1.655287353515625,-0.0021304660476744175,0.010252867825329304,0.019973119720816612
1772515161836334600,1.66533447265625,-0.0021304660476744175,0.008122402243316174,0.019973119720816612
1772515161846382600,1.675382568359375,-0.0010652330238372087,0.005991935729980469,0.015712186694145203
1772515161856429800,1.685429931640625,-0.0010652330238372087,0.0038614696823060513,0.008255556225776672
1772515161866479600,1.695479736328125,0.0010652330238372087,0.0038614696823060513,0.00719032296910882
1772515161876527000,1.705527099609375,0,0.008122402243316174,0.0061250897124409676
1772515161886546000,1.7155458984375,-0.00852186419069767,0.015579032711684704,0.010386021807789803
1772515161896590600,1.725590576171875,-0.01810896210372448,0.033554840832948685,0.019973119720816612
1772515161906665000,1.7356650390625,-0.02982652559876442,0.045272402465343475,0.028494983911514282
1772515161916712400,1.74571240234375,-0.03408745676279068,0.045272402465343475,0.029560215771198273
1772515161926741200,1.7557412109375,-0.02769605815410614,0.043141938745975494,0.03382114693522453
1772515161936787000,1.765786865234375,-0.01810896210372448,0.049533337354660034,0.03382114693522453
1772515161946836500,1.77583642578125,-0.00852186419069767,0.049533337354660034,0.025299284607172012
1772515161956882700,1.785882568359375,-0.0063913981430232525,0.048468101769685745,0.013581721112132072
1772515161966931200,1.79593115234375,-0.0106523297727108,0.046337638050317764,0.002929390873759985
1772515161976977700,1.805977783203125,-0.02023942768573761,0.049533337354660034,-0.00452724052593112
1772515161987010000,1.816010009765625,-0.02556559257209301,0.050598569214344025,-0.011983871459960938
1772515161997055000,1.826054931640625,-0.02556559257209301,0.053794268518686295,-0.011983871459960938
1772515162007120400,1.836120361328125,-0.01704372838139534,0.051663801074028015,-0.013049104250967503
1772515162017167400,1.84616748046875,-0.0063913981430232525,0.043141938745975494,-0.014114337973296642
1772515162027216400,1.85621630859375,0.0053261648863554,0.042076703161001205,0.0007989247678779066
1772515162037263400,1.866263427734375,0.013714875094592571,0.045272402465343475,0.026364516466856003
1772515162047310800,1.876310791015625,0.015845341607928276,0.052729032933712006,0.04447348043322563
1772515162057357800,1.88635791015625,0.013714875094592571,0.058055199682712555,0.04660394415259361
1772515162067403800,1.89640380859375,0.019041040912270546,0.048468101769685745,0.030625449493527412
1772515162077451000,1.906450927734375,0.026497671380639076,0.035685304552316666,0.012516488321125507
1772515162087492600,1.91649267578125,0.03288906812667847,0.02729659713804722,0.008255556225776672
1772515162097539300,1.926539306640625,0.031823836266994476,0.02729659713804722,0.019973119720816612
1772515162107592400,1.936592529296875,0.031823836266994476,0.02090519852936268,0.0370168462395668
1772515162117639700,1.9466396484375,0.03288906812667847,0.014513799920678139,0.05299534276127815
1772515162127644000,1.956643798828125,0.03608476743102074,0.004926702938973904,0.05619104206562042
1772515162137718000,1.966718017578125,0.040345702320337296,-0.011051792651414871,0.04660394415259361
1772515162147739000,1.97673876953125,0.041410934180021286,-0.02489982172846794,0.03169068321585655
1772515162157810700,1.986810791015625,0.033954303711652756,-0.03235645219683647,0.017842652276158333
1772515162167857700,1.996857666015625,0.021171506494283676,-0.03235645219683647,0.010386021807789803
1772515162197976800,2.026976806640625,-0.007456631399691105,-0.03129122033715248,0.008255556225776672
1772515162208061000,2.03706103515625,-0.0010652330238372087,-0.02916075475513935,0.009320789016783237
1772515162218111000,2.047111083984375,0.0106523297727108,-0.02809552103281021,0.010386021807789803
1772515162228150000,2.05714990234375,0.012649642303586006,-0.02916075475513935,0.0061250897124409676
1772515162238199000,2.067198974609375,0.0063913981430232525,-0.03022598661482334,0.00719032296910882
1772515162248223000,2.077222900390625,-0.0021304660476744175,-0.02596505545079708,0.0061250897124409676
1772515162258271700,2.087271728515625,-0.009587096981704235,-0.01957365684211254,0.00399462366476655
1772515162268338700,2.097338623046875,-0.012782796286046505,-0.02596505545079708,0.0018641578499227762
1772515162278389000,2.107388916015625,-0.01171756349503994,-0.03342168778181076,0.0018641578499227762
1772515162288430000,2.11743017578125,-0.00852186419069767,-0.039813082665205,0.0007989247678779066
1772515162298479600,2.127479736328125,-0.0063913981430232525,-0.04833494871854782,-0.0034620072692632675
1772515162308530700,2.13753076171875,0,-0.0611177459359169,-0.011983871459960938
1772515162318580200,2.147580322265625,0.009587096981704235,-0.0717700719833374,-0.013049104250967503
1772515162328583400,2.15758349609375,0.021171506494283676,-0.07283531129360199,-0.008788172155618668
1772515162338658000,2.167657958984375,0.03288906812667847,-0.05792204663157463,0.0007989247678779066
1772515162358757000,2.187757080078125,0.052063263952732086,-0.03768261894583702,0.011451254598796368
1772515162368769500,2.19776953125,0.06591129302978516,-0.03235645219683647,0.00399462366476655
1772515162378819000,2.207819091796875,0.07975932210683823,-0.02489982172846794,-0.008788172155618668
1772515162388899000,2.217899169921875,0.08188978582620621,-0.009986559860408306,-0.018375270068645477
1772515162398951200,2.227951171875,0.07336792349815369,0.010252867825329304,-0.016244804486632347
1772515162408988200,2.23798828125,0.059519894421100616,0.033554840832948685,-0.008788172155618668
1772515162419039000,2.2480390625,0.045671865344047546,0.048468101769685745,0.0007989247678779066
1772515162429086500,2.25808642578125,0.037150003015995026,0.055924732238054276,0.010386021807789803
1772515162439136800,2.26813671875,0.023301972076296806,0.052729032933712006,0.014646953903138638
1772515162449178600,2.2781787109375,0.004260932095348835,0.049533337354660034,0.018907885998487473
1772515162459228200,2.288228271484375,-0.01491326279938221,0.045272402465343475,0.021038351580500603
1772515162469275400,2.298275390625,-0.03089175745844841,0.036750540137290955,0.012516488321125507
1772515162479324700,2.30832470703125,-0.04473978653550148,0.02410089783370495,-0.0077229393646121025
1772515162489364200,2.3183642578125,-0.05113118514418602,0.005991935729980469,-0.031158065423369408
1772515162499412500,2.32841259765625,-0.05113118514418602,-0.006790860556066036,-0.04181039705872536
1772515162509457700,2.338457763671875,-0.05858781561255455,-0.007856093347072601,-0.0375494658946991
1772515162519505400,2.34850537109375,-0.06924014538526535,0.0027962366584688425,-0.018375270068645477
1772515162529553200,2.35855322265625,-0.07882724702358246,0.02303566411137581,0.0061250897124409676
1772515162539601200,2.36860107421875,-0.08308817446231842,0.02836182899773121,0.021038351580500603
1772515162549660700,2.37866064453125,-0.07989247888326645,0.02410089783370495,0.018907885998487473
1772515162559709700,2.388709716796875,-0.07030537724494934,0.01664426550269127,0.008255556225776672
1772515162569748500,2.39874853515625,-0.06284874677658081,0.011318100616335869,0.00399462366476655
1772515162579796700,2.408796630859375,-0.05752258375287056,0.02303566411137581,0.00399462366476655
1772515162589873400,2.418873291015625,-0.05113118514418602,0.031424373388290405,-0.0034620072692632675
1772515162599924500,2.428924560546875,-0.04900071769952774,0.035685304552316666,-0.020505735650658607
1772515162609963800,2.4389638671875,-0.04367455467581749,0.042076703161001205,-0.04500609636306763
1772515162620013600,2.449013671875,-0.03728315606713295,0.045272402465343475,-0.06524552404880524
1772515162630057000,2.459056884765625,-0.03728315606713295,0.047402869910001755,-0.07163692265748978
1772515162640106000,2.46910595703125,-0.0426093190908432,0.049533337354660034,-0.06311506032943726
1772515162650150100,2.479150146484375,-0.04900071769952774,0.058055199682712555,-0.0482017956674099
1772515162660198700,2.48919873046875,-0.05645735189318657,0.06977276504039764,-0.026897134259343147
1772515162670248700,2.499248779296875,-0.06710968166589737,0.07829462736845016,-0.010918638668954372
1772515162680297500,2.50929736328125,-0.07350108027458191,0.08681648969650269,-0.006657706573605537
1772515162690346200,2.51934619140625,-0.08415340632200241,0.09107742458581924,-0.016244804486632347
1772515162700395000,2.52939501953125,-0.0958709716796875,0.09427312016487122,-0.0375494658946991
1772515162710436000,2.53943603515625,-0.10545806586742401,0.09107742458581924,-0.06311506032943726
1772515162720484000,2.549484130859375,-0.10971900075674057,0.08255556225776672,-0.08655018359422684
1772515162730536700,2.55953662109375,-0.11291470378637314,0.07083799690008163,-0.10572437942028046
1772515162740585000,2.5695849609375,-0.11504516750574112,0.054859500378370285,-0.1227681040763855
1772515162750626600,2.57962646484375,-0.11397993564605713,0.045272402465343475,-0.12702903151512146
1772515162760674300,2.58967431640625,-0.11184946447610855,0.042076703161001205,-0.11637670546770096
1772515162770721500,2.599721435546875,-0.11184946447610855,0.046337638050317764,-0.09294158220291138
1772515162780769000,2.60976904296875,-0.11184946447610855,0.045272402465343475,-0.06418029218912125
1772515162790812200,2.619812255859375,-0.10865376889705658,0.030359141528606415,-0.04287562891840935
1772515162800859400,2.629859375,-0.10226237028837204,0.01877473294734955,-0.023701434955000877
1772515162810903000,2.639903076171875,-0.09374050796031952,0.012383334338665009,-0.016244804486632347
1772515162820950000,2.649949951171875,-0.07669677585363388,0.000665770610794425,-0.013049104250967503
1772515162830985200,2.659985107421875,-0.05752258375287056,-0.0014646954368799925,-0.014114337973296642
1772515162841031000,2.670031005859375,-0.05219641700387001,-0.0003994623839389533,-0.015179570764303207
1772515162851078400,2.680078369140625,-0.05858781561255455,0.008122402243316174,-0.0023967742454260588
1772515162861124400,2.690124267578125,-0.06604444980621338,0.02090519852936268,0.023168819025158882
1772515162871175400,2.700175537109375,-0.07030537724494934,0.041011471301317215,0.05619104206562042
1772515162881222000,2.710221923828125,-0.06817491352558136,0.06764229387044907,0.07643046975135803
1772515162891270000,2.720269775390625,-0.06924014538526535,0.08788172155618668,0.07430000603199005
1772515162901316400,2.73031640625,-0.07030537724494934,0.10172975063323975,0.06577813625335693
1772515162911361800,2.74036181640625,-0.07137060910463333,0.1262301206588745,0.05512581020593643
1772515162921408300,2.750408203125,-0.07882724702358246,0.14433906972408295,0.04447348043322563
1772515162931458800,2.760458740234375,-0.08734910935163498,0.14114338159561157,0.04234301298856735
1772515162941505800,2.770505859375,-0.09480573982000351,0.1283605843782425,0.04234301298856735
1772515162951550700,2.78055078125,-0.09906667470932007,0.1166430190205574,0.03808208182454109
1772515162961597400,2.790597412109375,-0.09906667470932007,0.10812114924192429,0.030625449493527412
1772515162971646200,2.800646240234375,-0.09480573982000351,0.10812114924192429,0.019973119720816612
1772515162981693200,2.810693115234375,-0.08947957307100296,0.10812114924192429,0.019973119720816612
1772515162991738400,2.82073828125,-0.09054480493068695,0.09853405505418777,0.019973119720816612
1772515163001785000,2.83078515625,-0.09374050796031952,0.08255556225776672,0.013581721112132072
1772515163011846000,2.840845947265625,-0.08628387749195099,0.06764229387044907,0.0061250897124409676
1772515163021894100,2.85089404296875,-0.07563154399394989,0.051663801074028015,0.009320789016783237
1772515163031929000,2.86092919921875,-0.07563154399394989,0.036750540137290955,0.021038351580500603
1772515163041975800,2.870975830078125,-0.07989247888326645,0.01983996480703354,0.029560215771198273
1772515163052023600,2.8810234375,-0.08095771074295044,-0.0003994623839389533,0.025299284607172012
1772515163062070500,2.891070556640625,-0.06924014538526535,-0.02276935614645481,0.010386021807789803
1772515163072118300,2.9011181640625,-0.05645735189318657,-0.03448691964149475,-0.014114337973296642
1772515163082165200,2.911165283203125,-0.04580501839518547,-0.03555215150117874,-0.04607132822275162
1772515163092211000,2.9212109375,-0.03408745676279068,-0.03555215150117874,-0.09187635034322739
1772515163102258000,2.9312578125,-0.0159784946590662,-0.03768261894583702,-0.13768136501312256
1772515163112304400,2.941304443359375,0.0021304660476744175,-0.03661738336086273,-0.15685556828975677
1772515163122351000,2.95135107421875,0.013714875094592571,-0.03235645219683647,-0.15046416223049164
1772515163132401200,2.961401123046875,0.01171756349503994,-0.01957365684211254,-0.13661614060401917
1772515163142448000,2.9714482421875,0.0053261648863554,-0.005725627299398184,-0.11531147360801697
1772515163152479000,2.98147900390625,0,-0.005725627299398184,-0.07802832126617432
1772515163162524400,2.9915244140625,-0.02663082629442215,-0.02596505545079708,-0.0375494658946991
1772515163172586800,3.001586669921875,-0.05539211630821228,-0.007856093347072601,0.03488638252019882
1772515163182634000,3.011634033203125,-0.02023942768573761,0.044207170605659485,0.07323476672172546
1772515163192684500,3.0216845703125,0.013714875094592571,0.014513799920678139,0.05406057462096214
1772515163202732000,3.03173193359375,0.030758604407310486,-0.013182258233428001,0.026364516466856003
1772515163212788000,3.0417880859375,0.041410934180021286,-0.008921326138079166,0.00399462366476655
1772515163222836500,3.05183642578125,0.041410934180021286,-0.005725627299398184,-0.010918638668954372
1772515163232870400,3.061870361328125,0.030758604407310486,-0.008921326138079166,-0.022636201232671738
1772515163242917400,3.07191748046875,0.020106272771954536,-0.01637795753777027,-0.026897134259343147
1772515163252973000,3.08197314453125,0.015845341607928276,-0.02809552103281021,-0.023701434955000877
1772515163263020800,3.092020751953125,0.015845341607928276,-0.04300878196954727,-0.013049104250967503
1772515163273059000,3.10205908203125,0.016910573467612267,-0.06005251035094261,0.00719032296910882
1772515163283105800,3.112105712890625,0.014780107885599136,-0.07390054315328598,0.03169068321585655
1772515163293166600,3.12216650390625,0.0106523297727108,-0.07922670245170593,0.06790860742330551
1772515163303214800,3.13221484375,0.0063913981430232525,-0.08348763734102249,0.09560466557741165
1772515163313246000,3.142245849609375,0.0031956990715116262,-0.08987903594970703,0.10945269465446472
1772515163323292400,3.15229248046875,0.004260932095348835,-0.09627043455839157,0.11371362209320068
1772515163333342700,3.1623427734375,0.007456631399691105,-0.1037270650267601,0.10199606418609619
1772515163343389700,3.1723896484375,0.013714875094592571,-0.10798799991607666,0.08708280324935913
1772515163353442000,3.182442138671875,0.016910573467612267,-0.10266183316707611,0.08069140464067459
1772515163363489500,3.192489501953125,0.015845341607928276,-0.09627043455839157,0.07430000603199005
1772515163373571600,3.202571533203125,0.013714875094592571,-0.08881380409002304,0.0689738392829895
1772515163383622400,3.212622314453125,0.013714875094592571,-0.06644391268491745,0.0689738392829895
1772515163393638000,3.222637939453125,0.0021304660476744175,-0.04194355010986328,0.06577813625335693
1772515163403685400,3.232685302734375,-0.01810896210372448,-0.012117025442421436,0.04553871229290962
1772515163413733000,3.242733154296875,-0.03408745676279068,0.02197043038904667,0.016777420416474342
1772515163423780400,3.2527802734375,-0.04473978653550148,0.048468101769685745,-0.022636201232671738
1772515163433812700,3.262812744140625,-0.05219641700387001,0.0633813664317131,-0.06311506032943726
1772515163443858700,3.272858642578125,-0.05858781561255455,0.06657706201076508,-0.10039821267127991
1772515163453914600,3.28291455078125,-0.0639139786362648,0.07296846061944962,-0.12702903151512146
1772515163463961600,3.292961669921875,-0.07030537724494934,0.08362079411745071,-0.13874660432338715
1772515163474003500,3.30300341796875,-0.07989247888326645,0.08362079411745071,-0.13022473454475403
1772515163484050000,3.3130498046875,-0.08308817446231842,0.07616416364908218,-0.10892007499933243
1772515163494096600,3.3230966796875,-0.07776200771331787,0.06977276504039764,-0.08441971987485886
1772515163504143000,3.33314306640625,-0.07776200771331787,0.0644465982913971,-0.05565842613577843
1772515163514201600,3.34320166015625,-0.07669677585363388,0.059120431542396545,-0.03541899845004082
1772515163524249300,3.353249267578125,-0.06924014538526535,0.048468101769685745,-0.027962366119027138
1772515163534284500,3.363284423828125,-0.05645735189318657,0.042076703161001205,-0.026897134259343147
1772515163544330800,3.373330810546875,-0.04367455467581749,0.034620072692632675,-0.023701434955000877
1772515163554382800,3.3833828125,-0.0319569893181324,0.02942706272006035,-0.018375270068645477
1772515163564429800,3.393429931640625,-0.02023942768573761,0.02410089783370495,-0.005592473316937685
1772515163574471400,3.403471435546875,-0.0010652330238372087,0.02197043038904667,0.00719032296910882
1772515163584517600,3.413517578125,0.020106272771954536,0.01983996480703354,0.011451254598796368
1772515163594585900,3.4235859375,0.03928046673536301,0.013448567129671574,0.014646953903138638
1772515163604634600,3.433634521484375,0.055258963257074356,0.013448567129671574,0.017842652276158333
1772515163614671400,3.44367138671875,0.06804175674915314,0.01770949922502041,0.021038351580500603
1772515163624718800,3.45371875,0.08402025699615479,0.02410089783370495,0.023168819025158882
1772515163634754800,3.4637548828125,0.09573781490325928,0.02516612969338894,0.019973119720816612
1772515163644801300,3.47380126953125,0.1031944528222084,0.01877473294734955,0.013581721112132072
1772515163654839600,3.483839599609375,0.10639014840126038,0.011318100616335869,0.00719032296910882
1772515163664885000,3.493885009765625,0.10745538026094437,0.010252867825329304,-0.0023967742454260588
1772515163674953200,3.503953125,0.10745538026094437,0.009187635034322739,-0.017310036346316338
1772515163685001000,3.5140009765625,0.10745538026094437,0.010252867825329304,-0.03222329914569855
1772515163695038000,3.524037841796875,0.10106398165225983,0.009187635034322739,-0.0482017956674099
1772515163705084700,3.534084716796875,0.08934641629457474,0.009187635034322739,-0.06631075590848923
1772515163715132200,3.544132080078125,0.07762885838747025,0.013448567129671574,-0.07270215451717377
1772515163725179000,3.554178955078125,0.06484606117010117,0.015579032711684704,-0.06524552404880524
1772515163735227600,3.5642275390625,0.045671865344047546,0.02623136341571808,-0.04713656008243561
1772515163745274600,3.574274658203125,0.028628136962652206,0.038881003856658936,-0.03541899845004082
1772515163755321600,3.584321533203125,0.017975807189941406,0.043141938745975494,-0.04394086077809334
1772515163765368600,3.59436865234375,0.00852186419069767,0.02516612969338894,-0.07270215451717377
1772515163775428600,3.6044287109375,0.0021304660476744175,0.011318100616335869,-0.10465914756059647
1772515163785476900,3.614476806640625,0.0021304660476744175,-0.0003994623839389533,-0.12383333593606949
1772515163795525000,3.624525146484375,-0.0031956990715116262,-0.013182258233428001,-0.12170287221670151
1772515163805573400,3.634573486328125,-0.0106523297727108,-0.014247491955757141,-0.09720251709222794
1772515163815622400,3.644622314453125,-0.01171756349503994,-0.015312724746763706,-0.06631075590848923
1772515163825670700,3.654670654296875,-0.0053261648863554,-0.02063889056444168,-0.03541899845004082
1772515163835714600,3.664714599609375,0.0063913981430232525,-0.02276935614645481,-0.00452724052593112
1772515163845762600,3.674762451171875,0.017975807189941406,-0.02063889056444168,0.03275591507554054
1772515163855810300,3.684810302734375,0.029693370684981346,-0.02063889056444168,0.06577813625335693
1772515163865858000,3.694858154296875,0.043541401624679565,-0.014247491955757141,0.08814803510904312
1772515163875902000,3.70490185546875,0.055258963257074356,-0.00359516148455441,0.09986559301614761
1772515163885949400,3.714949462890625,0.06591129302978516,0.007057168986648321,0.09240896254777908
1772515163895995100,3.7249951171875,0.06910699605941772,0.01664426550269127,0.07110430300235748
1772515163906042600,3.735042724609375,0.06591129302978516,0.02623136341571808,0.04021254554390907
1772515163916091000,3.7450908203125,0.058454662561416626,0.02623136341571808,0.012516488321125507
1772515163926138400,3.755138427734375,0.054193731397390366,0.02303566411137581,-0.006657706573605537
1772515163936185600,3.765185546875,0.054193731397390366,0.02303566411137581,-0.016244804486632347
1772515163946233000,3.775233154296875,0.055258963257074356,0.02516612969338894,-0.016244804486632347
1772515163956251600,3.785251708984375,0.05312849581241608,0.02942706272006035,-0.014114337973296642
1772515163966296000,3.795296142578125,0.047802332788705826,0.036750540137290955,-0.009853405877947807
1772515163976372000,3.8053720703125,0.033954303711652756,0.042076703161001205,-0.010918638668954372
1772515163986419700,3.815419677734375,0.022236740216612816,0.045272402465343475,-0.019440501928329468
1772515163996439000,3.82543896484375,0.012649642303586006,0.044207170605659485,-0.03222329914569855
1772515164006484000,3.83548388671875,0.0053261648863554,0.033554840832948685,-0.04181039705872536
1772515164016559000,3.84555908203125,0.0031956990715116262,0.02410089783370495,-0.04394086077809334
1772515164026607000,3.855607177734375,0.0021304660476744175,0.02090519852936268,-0.0375494658946991
1772515164036657700,3.86565771484375,-0.0010652330238372087,0.01770949922502041,-0.024766668677330017
1772515164046706000,3.875705810546875,-0.00852186419069767,0.014513799920678139,-0.0023967742454260588
1772515164056743000,3.885742919921875,-0.01917419396340847,0.012383334338665009,0.018907885998487473
1772515164066790000,3.895789794921875,-0.02876129187643528,0.014513799920678139,0.0370168462395668
1772515164076830000,3.905829833984375,-0.03941362351179123,0.013448567129671574,0.05619104206562042
1772515164086876200,3.915876220703125,-0.04900071769952774,0.013448567129671574,0.07003907114267349
1772515164096933600,3.92593359375,-0.05965305119752884,0.010252867825329304,0.07856093347072601
1772515164106981000,3.935981201171875,-0.07137060910463333,0.009187635034322739,0.08175663650035858
1772515164117033200,3.946033203125,-0.08095771074295044,0.01877473294734955,0.07536523789167404
1772515164127081200,3.956081298828125,-0.09054480493068695,0.02729659713804722,0.05725627392530441
1772515164137112600,3.966112548828125,-0.09480573982000351,0.033554840832948685,0.026364516466856003
1772515164147158800,3.97615869140625,-0.09267527610063553,0.035685304552316666,-0.00133154122158885
1772515164157205800,3.986205810546875,-0.09374050796031952,0.031424373388290405,-0.018375270068645477
1772515164167252000,3.996251953125,-0.0958709716796875,0.02516612969338894,-0.021570969372987747
1772515164177301000,4.006301025390625,-0.10013190656900406,0.01770949922502041,-0.013049104250967503
1772515164187347700,4.01634765625,-0.1065233051776886,0.01664426550269127,-0.0002663082559593022
1772515164197405000,4.026405029296875,-0.10865376889705658,0.012383334338665009,0.008255556225776672
1772515164207452700,4.03645263671875,-0.10758853703737259,0.011318100616335869,0.008255556225776672
1772515164217490200,4.046490234375,-0.10758853703737259,0.013448567129671574,0.012516488321125507
1772515164227536600,4.05653662109375,-0.10971900075674057,0.011318100616335869,0.015712186694145203
1772515164237584000,4.066583984375,-0.1065233051776886,0.009187635034322739,0.017842652276158333
1772515164247630600,4.076630615234375,-0.0958709716796875,0.007057168986648321,0.017842652276158333
1772515164257687300,4.086687255859375,-0.08308817446231842,-0.006790860556066036,0.011451254598796368
1772515164267735000,4.096735107421875,-0.06817491352558136,-0.01957365684211254,0.0061250897124409676
1772515164277782300,4.1067822265625,-0.05752258375287056,-0.02596505545079708,-0.00133154122158885
1772515164287830000,4.116830078125,-0.04687025398015976,-0.03129122033715248,-0.006657706573605537
1772515164297878800,4.126878662109375,-0.04367455467581749,-0.02809552103281021,-0.0077229393646121025
1772515164307926500,4.136926513671875,-0.04900071769952774,-0.0185084231197834,-0.011983871459960938
1772515164317963000,4.146962890625,-0.05219641700387001,-0.01744319126009941,-0.015179570764303207
1772515164328009700,4.157009765625,-0.0639139786362648,-0.012117025442421436,-0.005592473316937685
1772515164338057700,4.1670576171875,-0.07030537724494934,0.010252867825329304,0.015712186694145203
1772515164348104400,4.1771044921875,-0.07137060910463333,0.02516612969338894,0.03488638252019882
1772515164358151000,4.18715087890625,-0.0745663121342659,0.01983996480703354,0.04021254554390907
1772515164368197600,4.19719775390625,-0.06924014538526535,0.015579032711684704,0.03275591507554054
1772515164378244000,4.207244140625,-0.05539211630821228,0.02410089783370495,0.011451254598796368
1772515164388290800,4.217290771484375,-0.0426093190908432,0.031424373388290405,-0.016244804486632347
1772515164398348500,4.2273486328125,-0.02769605815410614,0.042076703161001205,-0.04500609636306763
1772515164408396500,4.237396484375,-0.009587096981704235,0.041011471301317215,-0.07057169079780579
1772515164418433500,4.24743359375,0.015845341607928276,0.030359141528606415,-0.0801587849855423
1772515164428480300,4.257480224609375,0.043541401624679565,0.02729659713804722,-0.06418029218912125
1772515164438530300,4.2675302734375,0.06804175674915314,0.035685304552316666,-0.027962366119027138
1772515164448577300,4.277577392578125,0.08934641629457474,0.043141938745975494,0.012516488321125507
1772515164458630400,4.28763037109375,0.11278154700994492,0.044207170605659485,0.04127778112888336
1772515164468678000,4.297677978515625,0.13408620655536652,0.034620072692632675,0.0583215095102787
1772515164478727700,4.307727783203125,0.14899946749210358,0.02836182899773121,0.06684337556362152
1772515164488775400,4.317775390625,0.16178226470947266,0.02836182899773121,0.06258244067430496
1772515164498840000,4.327840087890625,0.1681736707687378,0.02942706272006035,0.04873441159725189
1772515164508889600,4.3378896484375,0.17456506192684174,0.02623136341571808,0.03169068321585655
1772515164518902500,4.347902587890625,0.18095645308494568,0.02410089783370495,0.015712186694145203
1772515164528948500,4.357948486328125,0.18628261983394623,0.02516612969338894,0.0061250897124409676
1772515164538998300,4.367998291015625,0.19054356217384338,0.02729659713804722,0.002929390873759985
1772515164549044500,4.37804443359375,0.18095645308494568,0.032489608973264694,0.00399462366476655
1772515164559092700,4.3880927734375,0.16604319214820862,0.031424373388290405,0.008255556225776672
1772515164569139200,4.39813916015625,0.15112993121147156,0.041011471301317215,0.017842652276158333
1772515164579185000,4.408184814453125,0.13941237330436707,0.043141938745975494,0.018907885998487473
1772515164589231000,4.418231201171875,0.12662957608699799,0.042076703161001205,0.013581721112132072
1772515164599288600,4.42828857421875,0.11704248189926147,0.041011471301317215,0.0061250897124409676
1772515164609336000,4.438336181640625,0.1138467788696289,0.038881003856658936,-0.009853405877947807
1772515164619413800,4.448413818359375,0.11171631515026093,0.02516612969338894,-0.025831900537014008
1772515164629464300,4.45846435546875,0.11171631515026093,0.01664426550269127,-0.03328853100538254
1772515164639470000,4.468469970703125,0.11065108329057693,0.01664426550269127,-0.03328853100538254
1772515164649516000,4.47851611328125,0.1031944528222084,0.01664426550269127,-0.030092833563685417
1772515164659563000,4.48856298828125,0.0925421193242073,0.010252867825329304,-0.023701434955000877
1772515164669609000,4.49860888671875,0.08615072071552277,0.01664426550269127,-0.0002663082559593022
1772515164679667700,4.508667724609375,0.07762885838747025,0.02516612969338894,0.024234050884842873
1772515164689715000,4.51871484375,0.0723026916384697,0.01983996480703354,0.03382114693522453
1772515164699762200,4.52876220703125,0.06697652488946915,0.010252867825329304,0.03595161437988281
1772515164709809700,4.5388095703125,0.06591129302978516,0.012383334338665009,0.03914731368422508
1772515164719858000,4.54885791015625,0.057389430701732635,0.014513799920678139,0.03488638252019882
1772515164729905400,4.558905517578125,0.045671865344047546,0.009187635034322739,0.015712186694145203
1772515164739954000,4.568953857421875,0.031823836266994476,-0.0014646954368799925,-0.008788172155618668
1772515164750001400,4.57900146484375,0.022236740216612816,0.000665770610794425,-0.010918638668954372
1772515164760035800,4.589035888671875,0.01171756349503994,0.008122402243316174,0.008255556225776672
1772515164770082000,4.59908203125,-0.00852186419069767,0.004926702938973904,0.013581721112132072
1772515164780129300,4.60912939453125,-0.02876129187643528,-0.011051792651414871,0.0061250897124409676
1772515164790175700,4.61917578125,-0.03834838792681694,-0.02170412242412567,0.008255556225776672
1772515164800227600,4.6292275390625,-0.04793548583984375,-0.01637795753777027,0.023168819025158882
1772515164810274600,4.639274658203125,-0.06284874677658081,-0.014247491955757141,0.030625449493527412
1772515164820324400,4.649324462890625,-0.07669677585363388,-0.0185084231197834,0.019973119720816612
1772515164830371600,4.65937158203125,-0.08202294260263443,-0.02063889056444168,0.009320789016783237
1772515164840413200,4.6694130859375,-0.08202294260263443,-0.0238345880061388,0.0061250897124409676
1772515164850459600,4.679459716796875,-0.07669677585363388,-0.02596505545079708,0.0018641578499227762
1772515164860507100,4.689507080078125,-0.07563154399394989,-0.03022598661482334,-0.00452724052593112
1772515164870553600,4.6995537109375,-0.07350108027458191,-0.039813082665205,-0.008788172155618668
1772515164880611300,4.709611328125,-0.07030537724494934,-0.04087831825017929,0.0018641578499227762
1772515164890659300,4.719659423828125,-0.06924014538526535,-0.03022598661482334,0.019973119720816612
1772515164900703500,4.729703369140625,-0.07030537724494934,-0.02596505545079708,0.026364516466856003
1772515164910751000,4.7397509765625,-0.06497921794652939,-0.03129122033715248,0.016777420416474342
1772515164920789000,4.7497890625,-0.0532616525888443,-0.03342168778181076,0.00719032296910882
1772515164930835500,4.75983544921875,-0.04580501839518547,-0.03342168778181076,0.00719032296910882
1772515164940900600,4.769900634765625,-0.04047885537147522,-0.03874785080552101,0.00399462366476655
1772515164950949000,4.77994921875,-0.03408745676279068,-0.04407401755452156,-0.0034620072692632675
1772515164960978400,4.789978515625,-0.02982652559876442,-0.04407401755452156,-0.0002663082559593022
1772515164971025000,4.80002490234375,-0.03089175745844841,-0.03661738336086273,0.015712186694145203
1772515164981071400,4.8100712890625,-0.03728315606713295,-0.03342168778181076,0.03169068321585655
1772515164991117800,4.820117919921875,-0.03621792420744896,-0.03129122033715248,0.03382114693522453
1772515165001155300,4.8301552734375,-0.02769605815410614,-0.03235645219683647,0.025299284607172012
1772515165011200800,4.84020068359375,-0.0213046595454216,-0.03661738336086273,0.017842652276158333
1772515165021282300,4.8502822265625,-0.01810896210372448,-0.04300878196954727,0.018907885998487473
1772515165031331300,4.860331298828125,-0.012782796286046505,-0.04300878196954727,0.023168819025158882
1772515165041368800,4.870368896484375,-0.0010652330238372087,-0.039813082665205,0.019973119720816612
1772515165051416800,4.880416748046875,0.0053261648863554,-0.039813082665205,0.013581721112132072
1772515165061463600,4.890463623046875,0.0063913981430232525,-0.03661738336086273,0.010386021807789803
1772515165071511600,4.900511474609375,0.007456631399691105,-0.03555215150117874,0.008255556225776672
1772515165081559800,4.910559814453125,0.009587096981704235,-0.03768261894583702,0.0018641578499227762
1772515165091607600,4.920607666015625,0.012649642303586006,-0.04087831825017929,-0.0034620072692632675
1772515165101653000,4.930653076171875,0.019041040912270546,-0.03555215150117874,0.0050598569214344025
1772515165111700700,4.94070068359375,0.030758604407310486,-0.02809552103281021,0.019973119720816612
1772515165121744000,4.950743896484375,0.050998032093048096,-0.02596505545079708,0.03169068321585655
1772515165131791000,4.960791015625,0.0712374597787857,-0.0238345880061388,0.04447348043322563
1772515165141840100,4.970840087890625,0.08934641629457474,-0.02170412242412567,0.05299534276127815
1772515165151887600,4.9808876953125,0.10745538026094437,-0.01744319126009941,0.05725627392530441
1772515165161935000,4.99093505859375,0.12662957608699799,-0.012117025442421436,0.06258244067430496
1772515165171982300,5.000982421875,0.15432563424110413,-0.013182258233428001,0.06258244067430496
1772515165182048300,5.01104833984375,0.17989122867584229,-0.03768261894583702,0.0476691760122776
1772515165192097500,5.02109765625,0.18521739542484283,-0.04620448127388954,0.03488638252019882
1772515165202123800,5.031123779296875,0.17989122867584229,-0.04407401755452156,0.03808208182454109
1772515165212170800,5.041170654296875,0.15965180099010468,-0.04513924941420555,0.04979964345693588
1772515165222201900,5.051201904296875,0.13195574283599854,-0.04726971685886383,0.06364767253398895
1772515165232247300,5.061247314453125,0.10745538026094437,-0.04726971685886383,0.07962616533041
1772515165242308600,5.07130859375,0.08721595257520676,-0.04513924941420555,0.08921326696872711
1772515165252355600,5.08135546875,0.06804175674915314,-0.03768261894583702,0.09134373068809509
1772515165262403600,5.091403564453125,0.045671865344047546,-0.02489982172846794,0.08601756393909454
1772515165272450600,5.101450439453125,0.022236740216612816,-0.004660394508391619,0.07430000603199005
1772515165282499600,5.11149951171875,0.0053261648863554,0.012383334338665009,0.05406057462096214
1772515165292546800,5.121546875,-0.00852186419069767,0.02303566411137581,0.030625449493527412
1772515165302578200,5.131578125,-0.02450035884976387,0.034620072692632675,0.012516488321125507
1772515165312623900,5.141623779296875,-0.04154408723115921,0.038881003856658936,-0.0002663082559593022
1772515165322673400,5.15167333984375,-0.05752258375287056,0.045272402465343475,-0.010918638668954372
1772515165332719600,5.1617197265625,-0.06710968166589737,0.049533337354660034,-0.014114337973296642
1772515165342770700,5.171770751953125,-0.07243584841489792,0.055924732238054276,-0.009853405877947807
1772515165352817200,5.181817138671875,-0.0745663121342659,0.06657706201076508,-0.005592473316937685
1772515165362860500,5.191860595703125,-0.07243584841489792,0.0740336924791336,-0.00133154122158885
1772515165372906800,5.20190673828125,-0.07350108027458191,0.08042509108781815,0.00719032296910882
1772515165382955800,5.211955810546875,-0.07669677585363388,0.09214265644550323,0.019973119720816612
1772515165393002200,5.222002197265625,-0.06710968166589737,0.10279498994350433,0.026364516466856003
1772515165403047400,5.23204736328125,-0.04793548583984375,0.11344731599092484,0.029560215771198273
1772515165413093600,5.24209375,-0.02876129187643528,0.11344731599092484,0.027429750189185143
1772515165423142100,5.25214208984375,-0.01171756349503994,0.09959928691387177,0.022103585302829742
1772515165433188900,5.26218896484375,0.0021304660476744175,0.0846860259771347,0.016777420416474342
1772515165443240200,5.272240234375,0.012649642303586006,0.06551183015108109,0.012516488321125507
1772515165453287200,5.282287109375,0.019041040912270546,0.048468101769685745,0.009320789016783237
1772515165463333000,5.2923330078125,0.026497671380639076,0.031424373388290405,0.0061250897124409676
1772515165473380000,5.302380126953125,0.03608476743102074,0.011318100616335869,0.0050598569214344025
1772515165483440000,5.312440185546875,0.042476166039705276,-0.005725627299398184,0.0061250897124409676
1772515165493488400,5.32248828125,0.04673709720373154,-0.014247491955757141,0.011451254598796368
1772515165503520300,5.332520263671875,0.042476166039705276,-0.01957365684211254,0.023168819025158882
1772515165513566700,5.342566650390625,0.031823836266994476,-0.02703028731048107,0.03169068321585655
1772515165523629000,5.352629150390625,0.026497671380639076,-0.02809552103281021,0.03808208182454109
1772515165533677000,5.362677001953125,0.020106272771954536,-0.02489982172846794,0.03808208182454109
1772515165543723500,5.3727236328125,0.007456631399691105,-0.02916075475513935,0.029560215771198273
1772515165553771500,5.382771484375,-0.004260932095348835,-0.03874785080552101,0.017842652276158333
1772515165563804700,5.3928046875,-0.0063913981430232525,-0.04833494871854782,0.008255556225776672
1772515165573851100,5.40285107421875,-0.012782796286046505,-0.05153064802289009,0.009320789016783237
1772515165583901000,5.41290087890625,-0.03089175745844841,-0.05259587988257408,0.018907885998487473
1772515165593947600,5.42294775390625,-0.05645735189318657,-0.04726971685886383,0.024234050884842873
1772515165603995400,5.432995361328125,-0.07563154399394989,-0.03768261894583702,0.022103585302829742
1772515165614042400,5.44304248046875,-0.09054480493068695,-0.03129122033715248,0.011451254598796368
1772515165624103400,5.453103515625,-0.1065233051776886,-0.02276935614645481,-0.0023967742454260588
1772515165634152000,5.46315185546875,-0.11504516750574112,-0.013182258233428001,-0.013049104250967503
1772515165644182000,5.47318212890625,-0.11824086308479309,-0.0003994623839389533,-0.017310036346316338
1772515165654228500,5.483228515625,-0.11824086308479309,0.0027962366584688425,-0.015179570764303207
1772515165664274200,5.493274169921875,-0.11824086308479309,0.0027962366584688425,-0.008788172155618668
1772515165674320600,5.503320556640625,-0.11611039936542511,-0.00359516148455441,0.0018641578499227762
1772515165684371500,5.513371337890625,-0.11184946447610855,-0.006790860556066036,0.012516488321125507
1772515165694418200,5.523418212890625,-0.10758853703737259,-0.014247491955757141,0.018907885998487473
1772515165704478200,5.533478271484375,-0.10226237028837204,-0.02703028731048107,0.025299284607172012
1772515165714526500,5.5435263671875,-0.09267527610063553,-0.03022598661482334,0.0370168462395668
1772515165724557000,5.55355712890625,-0.08947957307100296,-0.03022598661482334,0.04447348043322563
1772515165734603300,5.563603271484375,-0.08734910935163498,-0.03555215150117874,0.04127778112888336
1772515165744660000,5.573659912109375,-0.07882724702358246,-0.03768261894583702,0.029560215771198273
1772515165754707500,5.58370751953125,-0.06924014538526535,-0.04194355010986328,0.015712186694145203
1772515165764746000,5.59374609375,-0.06178351491689682,-0.04300878196954727,0.0018641578499227762
1772515165774792400,5.60379248046875,-0.05539211630821228,-0.03661738336086273,-0.009853405877947807
1772515165784839200,5.613839111328125,-0.04793548583984375,-0.03129122033715248,-0.016244804486632347
1772515165794885600,5.6238857421875,-0.03834838792681694,-0.03342168778181076,-0.022636201232671738
1772515165804952000,5.6339521484375,-0.02663082629442215,-0.03661738336086273,-0.023701434955000877
1772515165815000600,5.64400048828125,-0.01704372838139534,-0.03342168778181076,-0.013049104250967503
1772515165825027600,5.654027587890625,-0.01491326279938221,-0.02489982172846794,-0.00133154122158885
1772515165835074000,5.664073974609375,-0.01171756349503994,-0.0185084231197834,-0.0002663082559593022
1772515165845137400,5.674137451171875,-0.0021304660476744175,-0.0185084231197834,-0.0023967742454260588
1772515165855185700,5.684185546875,0.007456631399691105,-0.01637795753777027,-0.0002663082559593022
1772515165865217300,5.69421728515625,0.0063913981430232525,-0.006790860556066036,0.0061250897124409676
1772515165875263700,5.704263671875,0.0031956990715116262,0.009187635034322739,0.010386021807789803
1772515165885320200,5.7143203125,0.0021304660476744175,0.014513799920678139,0.00719032296910882
1772515165895367400,5.724367431640625,-0.0021304660476744175,0.005991935729980469,-0.005592473316937685
1772515165905419300,5.734419189453125,0,0.0017310036346316338,-0.010918638668954372
1772515165915467300,5.74446728515625,0.015845341607928276,0.007057168986648321,-0.00133154122158885
1772515165925492700,5.75449267578125,0.024367205798625946,0.014513799920678139,0.016777420416474342
1772515165935538400,5.764538330078125,0.023301972076296806,0.02197043038904667,0.03169068321585655
1772515165945609700,5.774609619140625,0.022236740216612816,0.01983996480703354,0.0370168462395668
1772515165955658000,5.784657958984375,0.021171506494283676,0.005991935729980469,0.03595161437988281
1772515165965700400,5.794700439453125,0.020106272771954536,-0.012117025442421436,0.029560215771198273
1772515165975747800,5.804747802734375,0.012649642303586006,-0.0185084231197834,0.021038351580500603
1772515165985796600,5.814796630859375,-0.0031956990715116262,-0.01744319126009941,0.013581721112132072
1772515165995844400,5.82484423828125,-0.02343512699007988,-0.009986559860408306,0.009320789016783237
1772515166005892900,5.834892822265625,-0.0426093190908432,-0.004660394508391619,0.0061250897124409676
1772515166015940600,5.844940673828125,-0.05752258375287056,-0.0014646954368799925,0.0018641578499227762
1772515166025973800,5.854973876953125,-0.05965305119752884,-0.0003994623839389533,-0.0034620072692632675
1772515166036020000,5.86502001953125,-0.05645735189318657,-0.004660394508391619,-0.0077229393646121025
1772515166046068000,5.87506787109375,-0.05219641700387001,-0.007856093347072601,-0.008788172155618668
1772515166056114400,5.885114501953125,-0.05006595328450203,-0.005725627299398184,-0.0023967742454260588
1772515166066172700,5.895172607421875,-0.04580501839518547,-0.0025299284607172012,0.0018641578499227762
1772515166076220400,5.905220458984375,-0.04154408723115921,-0.0003994623839389533,0.0018641578499227762
1772515166086234600,5.915234619140625,-0.03834838792681694,0.004926702938973904,-0.0023967742454260588
1772515166096278800,5.92527880859375,-0.03302222490310669,0.009187635034322739,-0.010918638668954372
1772515166106364400,5.935364501953125,-0.02236989326775074,0.013448567129671574,-0.016244804486632347
1772515166116413000,5.945412841796875,-0.01171756349503994,0.01770949922502041,-0.014114337973296642
1772515166126442800,5.95544287109375,-0.0021304660476744175,0.02303566411137581,-0.005592473316937685
1772515166136489500,5.965489501953125,0.007456631399691105,0.02410089783370495,0.0007989247678779066
1772515166146536700,5.97553662109375,0.021171506494283676,0.01877473294734955,0.0050598569214344025
1772515166156583400,5.98558349609375,0.042476166039705276,0.011318100616335869,0.012516488321125507
1772515166166630100,5.995630126953125,0.060585130006074905,0.009187635034322739,0.022103585302829742
1772515166176676900,6.0056767578125,0.07336792349815369,0.009187635034322739,0.03382114693522453
1772515166186738700,6.01573876953125,0.08082455396652222,0.013448567129671574,0.04553871229290962
1772515166196786700,6.02578662109375,0.08934641629457474,0.01983996480703354,0.04979964345693588
1772515166206845000,6.035844970703125,0.09999874979257584,0.02410089783370495,0.04979964345693588
1772515166216894200,6.045894287109375,0.1031944528222084,0.01877473294734955,0.04660394415259361
1772515166226931500,6.055931396484375,0.10958584398031235,0.012383334338665009,0.04340824484825134
1772515166236979500,6.0659794921875,0.11278154700994492,0.009187635034322739,0.04553871229290962
1772515166247021800,6.076021728515625,0.11065108329057693,0.012383334338665009,0.0476691760122776
1772515166257069300,6.0860693359375,0.10639014840126038,0.013448567129671574,0.0476691760122776
1772515166267117600,6.09611767578125,0.09467258304357529,0.004926702938973904,0.04553871229290962
1772515166277165000,6.1061650390625,0.07869409024715424,-0.006790860556066036,0.04127778112888336
1772515166287202000,6.1162021484375,0.057389430701732635,-0.00359516148455441,0.03808208182454109
1772515166297248500,6.12624853515625,0.029693370684981346,0.0027962366584688425,0.030625449493527412
1772515166307304400,6.136304443359375,0.004260932095348835,0.0027962366584688425,0.013581721112132072
1772515166317351700,6.1463515625,-0.01810896210372448,0.0027962366584688425,-0.00133154122158885
1772515166327400700,6.156400634765625,-0.0319569893181324,0.008122402243316174,-0.0023967742454260588
1772515166337448400,6.166448486328125,-0.04473978653550148,0.015579032711684704,-0.0023967742454260588
1772515166347496400,6.176496337890625,-0.05645735189318657,0.01770949922502041,-0.005592473316937685
1772515166357544200,6.186544189453125,-0.0639139786362648,0.012383334338665009,-0.010918638668954372
1772515166367590700,6.196590576171875,-0.07030537724494934,0.013448567129671574,-0.011983871459960938
1772515166377638400,6.206638427734375,-0.0745663121342659,0.012383334338665009,-0.014114337973296642
1772515166387684400,6.216684326171875,-0.0745663121342659,0.013448567129671574,-0.016244804486632347
1772515166397731800,6.22673193359375,-0.06817491352558136,0.013448567129671574,-0.016244804486632347
1772515166407749000,6.2367490234375,-0.05539211630821228,0.009187635034322739,-0.014114337973296642
1772515166417793500,6.24679345703125,-0.04047885537147522,0.0027962366584688425,-0.00133154122158885
1772515166427854000,6.25685400390625,-0.0213046595454216,0.000665770610794425,0.012516488321125507
1772515166437900000,6.266900146484375,-0.0010652330238372087,0.0038614696823060513,0.024234050884842873
1772515166447963000,6.276962890625,0.015845341607928276,0.011318100616335869,0.03169068321585655
1772515166458010600,6.2870107421875,0.030758604407310486,0.01983996480703354,0.03382114693522453
1772515166468041700,6.297041748046875,0.040345702320337296,0.02623136341571808,0.03382114693522453
1772515166478088000,6.307087890625,0.04993279650807381,0.030359141528606415,0.026364516466856003
1772515166488139000,6.317138916015625,0.058454662561416626,0.036750540137290955,0.00719032296910882
1772515166498185500,6.327185546875,0.06271559745073318,0.038881003856658936,-0.014114337973296642
1772515166508246500,6.33724658203125,0.06910699605941772,0.034620072692632675,-0.024766668677330017
1772515166518294500,6.34729443359375,0.0829550251364708,0.033554840832948685,-0.024766668677330017
1772515166528325000,6.3573251953125,0.09147688746452332,0.033554840832948685,-0.010918638668954372
1772515166538371300,6.367371337890625,0.09467258304357529,0.02942706272006035,0.00719032296910882
1772515166548433200,6.37743310546875,0.08934641629457474,0.02410089783370495,0.021038351580500603
1772515166558481000,6.38748095703125,0.07549838721752167,0.015579032711684704,0.028494983911514282
1772515166568515800,6.397515869140625,0.05312849581241608,0.0038614696823060513,0.024234050884842873
1772515166578562300,6.407562255859375,0.028628136962652206,-0.0025299284607172012,0.014646953903138638
1772515166588621800,6.417621826171875,0.004260932095348835,-0.00359516148455441,0.002929390873759985
1772515166598669600,6.427669677734375,-0.01491326279938221,-0.006790860556066036,-0.010918638668954372
1772515166608713500,6.43771337890625,-0.02556559257209301,-0.008921326138079166,-0.025831900537014008
1772515166618761000,6.447760986328125,-0.03408745676279068,-0.007856093347072601,-0.03222329914569855
1772515166628797200,6.457797119140625,-0.04154408723115921,-0.008921326138079166,-0.029027599841356277
1772515166638843400,6.467843505859375,-0.0426093190908432,-0.014247491955757141,-0.016244804486632347
1772515166648893000,6.477892822265625,-0.04367455467581749,-0.01957365684211254,-0.0002663082559593022
1772515166658939600,6.487939697265625,-0.04580501839518547,-0.02170412242412567,0.018907885998487473
1772515166668987000,6.49798681640625,-0.05219641700387001,-0.0185084231197834,0.03275591507554054
1772515166679033600,6.50803369140625,-0.06071828305721283,-0.0185084231197834,0.03275591507554054
1772515166689078800,6.518078857421875,-0.06284874677658081,-0.01637795753777027,0.019973119720816612
1772515166699125500,6.52812548828125,-0.05965305119752884,-0.014247491955757141,-0.0002663082559593022
1772515166709182700,6.5381826171875,-0.05965305119752884,-0.01957365684211254,-0.022636201232671738
1772515166719230200,6.548230224609375,-0.05645735189318657,-0.02276935614645481,-0.03541899845004082
1772515166729269200,6.558269287109375,-0.05219641700387001,-0.01744319126009941,-0.03541899845004082
1772515166739316200,6.568316162109375,-0.04687025398015976,-0.011051792651414871,-0.027962366119027138
1772515166749392600,6.578392578125,-0.04047885537147522,-0.007856093347072601,-0.017310036346316338
1772515166759442400,6.5884423828125,-0.03941362351179123,-0.013182258233428001,-0.009853405877947807
1772515166769460200,6.598460205078125,-0.02982652559876442,-0.02170412242412567,-0.0023967742454260588
1772515166779507000,6.6085068359375,-0.01810896210372448,-0.02596505545079708,0.0018641578499227762
1772515166789567700,6.618567626953125,-0.00852186419069767,-0.02809552103281021,0.00399462366476655
1772515166799615700,6.62861572265625,0.0010652330238372087,-0.03129122033715248,-0.00133154122158885
1772515166809657300,6.6386572265625,0.0106523297727108,-0.02916075475513935,-0.0077229393646121025
1772515166819704600,6.64870458984375,0.009587096981704235,-0.02596505545079708,-0.011983871459960938
1772515166829742000,6.6587421875,0.007456631399691105,-0.0185084231197834,-0.013049104250967503
1772515166839788300,6.668788330078125,0.0063913981430232525,-0.008921326138079166,-0.013049104250967503
1772515166849837000,6.678837158203125,0.0031956990715116262,-0.007856093347072601,-0.017310036346316338
1772515166859883500,6.688883544921875,0.0031956990715116262,-0.007856093347072601,-0.019440501928329468
1772515166869928200,6.69892822265625,0.0021304660476744175,-0.005725627299398184,-0.016244804486632347
1772515166879974400,6.708974365234375,0,-0.009986559860408306,-0.008788172155618668
1772515166890023000,6.71902294921875,-0.0031956990715116262,-0.008921326138079166,-0.0002663082559593022
1772515166900069400,6.7290693359375,-0.0053261648863554,-0.006790860556066036,0.0061250897124409676
1772515166910128400,6.73912841796875,-0.0106523297727108,-0.009986559860408306,0.00399462366476655
1772515166920176000,6.749176025390625,-0.01704372838139534,-0.009986559860408306,-0.00133154122158885
1772515166930211300,6.75921142578125,-0.02663082629442215,-0.004660394508391619,-0.013049104250967503
1772515166940257800,6.7692578125,-0.03941362351179123,0.005991935729980469,-0.024766668677330017
1772515166950319600,6.779319580078125,-0.04900071769952774,0.01770949922502041,-0.03648423030972481
1772515166960367900,6.789367919921875,-0.05858781561255455,0.02516612969338894,-0.0482017956674099
1772515166970383600,6.799383544921875,-0.05965305119752884,0.02729659713804722,-0.05459319427609444
1772515166980428500,6.809428466796875,-0.05219641700387001,0.02197043038904667,-0.05459319427609444
1772515166990507800,6.8195078125,-0.03941362351179123,0.01664426550269127,-0.04394086077809334
1772515167000556000,6.82955615234375,-0.03089175745844841,0.011318100616335869,-0.019440501928329468
1772515167010570500,6.839570556640625,-0.02023942768573761,0.0017310036346316338,0.008255556225776672
1772515167020615400,6.849615478515625,-0.01171756349503994,-0.005725627299398184,0.03488638252019882
1772515167030683100,6.85968310546875,-0.012782796286046505,-0.012117025442421436,0.04447348043322563
1772515167040730400,6.86973046875,-0.01704372838139534,-0.014247491955757141,0.04234301298856735
1772515167050777600,6.879777587890625,-0.02236989326775074,-0.009986559860408306,0.03169068321585655
1772515167060824800,6.889824951171875,-0.02982652559876442,-0.007856093347072601,0.014646953903138638
1772515167070870500,6.89987060546875,-0.03089175745844841,-0.0025299284607172012,-0.0002663082559593022
1772515167080917500,6.90991748046875,-0.03408745676279068,0.0038614696823060513,-0.009853405877947807
1772515167090967600,6.919967529296875,-0.04687025398015976,0.015579032711684704,-0.014114337973296642
1772515167101015000,6.93001513671875,-0.05113118514418602,0.02303566411137581,-0.015179570764303207
1772515167111069000,6.94006884765625,-0.04793548583984375,0.02410089783370495,-0.015179570764303207
1772515167121117000,6.950116943359375,-0.04473978653550148,0.02303566411137581,-0.009853405877947807
1772515167131155200,6.9601552734375,-0.04473978653550148,0.02090519852936268,-0.00452724052593112
1772515167141202200,6.9702021484375,-0.04900071769952774,0.01664426550269127,-0.00452724052593112
1772515167151249000,6.980248779296875,-0.05219641700387001,0.013448567129671574,-0.005592473316937685
1772515167161296100,6.990296142578125,-0.05539211630821228,0.007057168986648321,-0.0077229393646121025
1772515167171344000,7.00034375,-0.05752258375287056,0.004926702938973904,-0.008788172155618668
1772515167181391000,7.01039111328125,-0.06178351491689682,0.004926702938973904,-0.011983871459960938
1772515167191448000,7.020447998046875,-0.06497921794652939,0.011318100616335869,-0.018375270068645477
1772515167201496300,7.030496337890625,-0.06604444980621338,0.01770949922502041,-0.023701434955000877
1772515167211548400,7.04054833984375,-0.06284874677658081,0.02729659713804722,-0.024766668677330017
1772515167221597000,7.050596923828125,-0.06710968166589737,0.044207170605659485,-0.017310036346316338
1772515167231624400,7.06062451171875,-0.08947957307100296,0.08362079411745071,-0.0023967742454260588
1772515167241671000,7.0706708984375,-0.10226237028837204,0.10918638855218887,0.0007989247678779066
1772515167251722500,7.080722412109375,-0.10226237028837204,0.0953383520245552,-0.019440501928329468
1772515167261769500,7.09076953125,-0.09374050796031952,0.06870753318071365,-0.04607132822275162
1772515167271827200,7.1008271484375,-0.08734910935163498,0.053794268518686295,-0.04926702752709389
1772515167281875200,7.110875244140625,-0.08415340632200241,0.06657706201076508,-0.04074516147375107
1772515167291909000,7.1209091796875,-0.07669677585363388,0.06870753318071365,-0.03435376659035683
1772515167301955800,7.130955810546875,-0.06284874677658081,0.06870753318071365,-0.024766668677330017
1772515167312014600,7.1410146484375,-0.04793548583984375,0.053794268518686295,-0.021570969372987747
1772515167322062300,7.151062255859375,-0.0319569893181324,0.032489608973264694,-0.016244804486632347
1772515167332095700,7.161095703125,-0.0213046595454216,0.015579032711684704,-0.0034620072692632675
1772515167342142200,7.17114208984375,-0.01171756349503994,-0.0025299284607172012,0.008255556225776672
1772515167352201500,7.181201416015625,-0.0010652330238372087,-0.0185084231197834,0.016777420416474342
1772515167362249000,7.1912490234375,0.007456631399691105,-0.02596505545079708,0.026364516466856003
1772515167372287000,7.201286865234375,0.0106523297727108,-0.02809552103281021,0.03169068321585655
1772515167382333700,7.211333740234375,0.009587096981704235,-0.02170412242412567,0.03488638252019882
1772515167392380000,7.2213798828125,0.00852186419069767,-0.015312724746763706,0.03169068321585655
1772515167402426600,7.231426513671875,0.0063913981430232525,-0.007856093347072601,0.029560215771198273
1772515167412457700,7.241457763671875,0.0021304660476744175,0.0027962366584688425,0.027429750189185143
1772515167422503000,7.2515029296875,-0.0031956990715116262,0.014513799920678139,0.021038351580500603
1772515167432582100,7.26158203125,-0.004260932095348835,0.01770949922502041,0.008255556225776672
1772515167442630700,7.271630615234375,-0.0010652330238372087,0.01770949922502041,-0.00452724052593112
1772515167452683800,7.281683837890625,-0.0010652330238372087,0.013448567129671574,-0.013049104250967503
1772515167462732800,7.29173291015625,-0.0010652330238372087,0.007057168986648321,-0.023701434955000877
1772515167472770300,7.301770263671875,0.007456631399691105,0.004926702938973904,-0.024766668677330017
1772515167482818300,7.311818359375,0.016910573467612267,0.0027962366584688425,-0.014114337973296642
1772515167492868400,7.321868408203125,0.026497671380639076,0.000665770610794425,0.0018641578499227762
1772515167502916400,7.331916259765625,0.031823836266994476,0.0017310036346316338,0.024234050884842873
1772515167512960500,7.34196044921875,0.03288906812667847,-0.0003994623839389533,0.0370168462395668
1772515167523008300,7.35200830078125,0.031823836266994476,-0.0025299284607172012,0.0370168462395668
1772515167533052000,7.362052001953125,0.025432437658309937,-0.0003994623839389533,0.030625449493527412
1772515167543099400,7.372099365234375,0.022236740216612816,-0.0025299284607172012,0.022103585302829742
1772515167553124600,7.38212451171875,0.020106272771954536,-0.005725627299398184,0.014646953903138638
1772515167563169800,7.392169677734375,0.021171506494283676,-0.004660394508391619,0.0061250897124409676
1772515167573290500,7.40229052734375,0.024367205798625946,-0.007856093347072601,0.0007989247678779066
1772515167583343000,7.412343017578125,0.026497671380639076,-0.012117025442421436,0.002929390873759985
1772515167593313000,7.42231298828125,0.023301972076296806,-0.0025299284607172012,0.015712186694145203
1772515167603357400,7.432357421875,0.013714875094592571,0.02197043038904667,0.03382114693522453
1772515167613435000,7.442434814453125,0.007456631399691105,0.039946239441633224,0.03275591507554054
1772515167623482600,7.452482666015625,0.0063913981430232525,0.045272402465343475,0.014646953903138638
1772515167633508400,7.46250830078125,0.004260932095348835,0.048468101769685745,-0.006657706573605537
1772515167643553800,7.4725537109375,0.0021304660476744175,0.048468101769685745,-0.022636201232671738
1772515167653592300,7.48259228515625,0.0010652330238372087,0.054859500378370285,-0.027962366119027138
1772515167663637000,7.492636962890625,0,0.062316130846738815,-0.027962366119027138
1772515167673706800,7.502706787109375,-0.004260932095348835,0.06764229387044907,-0.019440501928329468
1772515167683754000,7.51275390625,-0.0106523297727108,0.061250898987054825,-0.00452724052593112
1772515167693791700,7.522791748046875,-0.01384802907705307,0.052729032933712006,0.012516488321125507
1772515167703838200,7.532838134765625,-0.0159784946590662,0.041011471301317215,0.03275591507554054
1772515167713901300,7.5429013671875,-0.01917419396340847,0.02623136341571808,0.0476691760122776
1772515167723949300,7.55294921875,-0.02236989326775074,0.013448567129671574,0.0583215095102787
1772515167733981700,7.562981689453125,-0.02876129187643528,0.008122402243316174,0.0689738392829895
1772515167744028200,7.573028076171875,-0.03302222490310669,0.004926702938973904,0.07110430300235748
1772515167754086700,7.583086669921875,-0.03302222490310669,-0.005725627299398184,0.06045197322964668
1772515167764134400,7.593134521484375,-0.0319569893181324,-0.012117025442421436,0.04873441159725189
1772515167774184700,7.603184814453125,-0.0319569893181324,-0.013182258233428001,0.0370168462395668
1772515167784232700,7.613232666015625,-0.0319569893181324,-0.011051792651414871,0.028494983911514282
1772515167794257700,7.623257568359375,-0.03089175745844841,-0.007856093347072601,0.021038351580500603
1772515167804303400,7.633303466796875,-0.02982652559876442,-0.004660394508391619,0.016777420416474342
1772515167814373000,7.643373046875,-0.03302222490310669,0.0038614696823060513,0.019973119720816612
1772515167824421000,7.653421142578125,-0.03089175745844841,0.012383334338665009,0.021038351580500603
1772515167834452200,7.6634521484375,-0.02663082629442215,0.01770949922502041,0.022103585302829742
1772515167844498400,7.67349853515625,-0.02450035884976387,0.02197043038904667,0.024234050884842873
1772515167854557400,7.683557373046875,-0.02769605815410614,0.01983996480703354,0.022103585302829742
1772515167864605200,7.693605224609375,-0.0319569893181324,0.01983996480703354,0.015712186694145203
1772515167874656000,7.703656005859375,-0.02876129187643528,0.02836182899773121,0.008255556225776672
1772515167884704000,7.7137041015625,-0.02023942768573761,0.031424373388290405,0.0007989247678779066
1772515167894738700,7.72373876953125,-0.00852186419069767,0.01983996480703354,-0.0077229393646121025
1772515167904785400,7.733785400390625,0.0010652330238372087,0.010252867825329304,-0.006657706573605537
1772515167914830300,7.743830322265625,0.0010652330238372087,0.011318100616335869,0.008255556225776672
1772515167924877000,7.753876953125,-0.0021304660476744175,0.008122402243316174,0.024234050884842873
1772515167934924800,7.7639248046875,-0.007456631399691105,0.0027962366584688425,0.03382114693522453
1772515167944971300,7.77397119140625,-0.01491326279938221,-0.0025299284607172012,0.03595161437988281
1772515167955018200,7.784018310546875,-0.0159784946590662,-0.0003994623839389533,0.03169068321585655
1772515167965065000,7.79406494140625,-0.0213046595454216,0.008122402243316174,0.016777420416474342
1772515167975095000,7.804094970703125,-0.02556559257209301,0.012383334338665009,-0.009853405877947807
1772515167985140000,7.814139892578125,-0.02876129187643528,0.014513799920678139,-0.0375494658946991
1772515167995205600,7.82420556640625,-0.0319569893181324,0.02197043038904667,-0.05778888985514641
1772515168005252900,7.8342529296875,-0.04047885537147522,0.030359141528606415,-0.06737598776817322
1772515168015314700,7.844314697265625,-0.04473978653550148,0.035685304552316666,-0.06844121962785721
1772515168025363200,7.85436328125,-0.04473978653550148,0.036750540137290955,-0.06098458915948868
1772515168035395000,7.86439501953125,-0.04047885537147522,0.031424373388290405,-0.04500609636306763
1772515168045442000,7.874442138671875,-0.02876129187643528,0.02197043038904667,-0.017310036346316338
1772515168055498800,7.884498779296875,-0.02343512699007988,0.009187635034322739,0.018907885998487473
1772515168065546500,7.89454638671875,-0.01810896210372448,-0.00359516148455441,0.04340824484825134
1772515168075593200,7.90459326171875,-0.01491326279938221,-0.01957365684211254,0.05406057462096214
1772515168085641000,7.914640869140625,-0.0159784946590662,-0.02916075475513935,0.05193011090159416
1772515168095694000,7.924694091796875,-0.02023942768573761,-0.02703028731048107,0.0370168462395668
1772515168105742300,7.934742431640625,-0.01917419396340847,-0.02703028731048107,0.012516488321125507
1772515168115771600,7.944771728515625,-0.0106523297727108,-0.02596505545079708,-0.009853405877947807
1772515168125818000,7.954818115234375,-0.00852186419069767,-0.01957365684211254,-0.020505735650658607
1772515168135869400,7.964869384765625,-0.01171756349503994,-0.02063889056444168,-0.017310036346316338
1772515168145916400,7.97491650390625,-0.0063913981430232525,-0.01744319126009941,0.0018641578499227762
1772515168155968000,7.984968017578125,-0.0010652330238372087,-0.008921326138079166,0.028494983911514282
1772515168166015500,7.995015380859375,0.0053261648863554,-0.009986559860408306,0.0476691760122776
1772515168176066800,8.00506689453125,0.0106523297727108,-0.01744319126009941,0.0583215095102787
1772515168186114600,8.015114501953125,0.016910573467612267,-0.02063889056444168,0.06151720881462097
1772515168196149500,8.0251494140625,0.022236740216612816,-0.01957365684211254,0.05938674136996269
1772515168206196000,8.035196044921875,0.023301972076296806,-0.0185084231197834,0.05406057462096214
1772515168216255700,8.045255859375,0.015845341607928276,-0.008921326138079166,0.05299534276127815
1772515168226303500,8.055303466796875,0.012649642303586006,0.000665770610794425,0.04234301298856735
1772515168236353800,8.065353759765625,0.0106523297727108,0.005991935729980469,0.030625449493527412
1772515168246401800,8.07540185546875,0.009587096981704235,0.014513799920678139,0.015712186694145203
1772515168256443400,8.085443359375,0.004260932095348835,0.02090519852936268,-0.0023967742454260588
1772515168266491000,8.095490966796875,-0.0063913981430232525,0.02729659713804722,-0.013049104250967503
1772515168276536600,8.10553662109375,-0.01704372838139534,0.036750540137290955,-0.010918638668954372
1772515168286583800,8.115583740234374,-0.02343512699007988,0.051663801074028015,-0.0023967742454260588
1772515168296625000,8.125625,-0.02769605815410614,0.062316130846738815,0.008255556225776672
1772515168306671600,8.135671630859376,-0.03089175745844841,0.06870753318071365,0.025299284607172012
1772515168316726000,8.14572607421875,-0.03515268862247467,0.06764229387044907,0.03914731368422508
1772515168326773500,8.1557734375,-0.04047885537147522,0.0644465982913971,0.03808208182454109
1772515168336812300,8.165812255859375,-0.04473978653550148,0.0633813664317131,0.025299284607172012
1772515168346858800,8.175858642578126,-0.04900071769952774,0.059120431542396545,0.010386021807789803
1772515168356904000,8.185904052734376,-0.05006595328450203,0.060185667127370834,-0.00133154122158885
1772515168366950400,8.195950439453124,-0.05006595328450203,0.059120431542396545,-0.005592473316937685
1772515168377007900,8.2060078125,-0.04900071769952774,0.051663801074028015,-0.0034620072692632675
1772515168387055400,8.216055419921876,-0.05113118514418602,0.046337638050317764,-0.0023967742454260588
1772515168397094400,8.226094482421875,-0.04687025398015976,0.041011471301317215,0.0007989247678779066
1772515168407140900,8.236140869140625,-0.04047885537147522,0.031424373388290405,0.0007989247678779066
1772515168417186300,8.246186279296875,-0.03089175745844841,0.015579032711684704,0.0018641578499227762
1772515168427232800,8.256232666015626,-0.01810896210372448,0.007057168986648321,0.00719032296910882
1772515168437279700,8.26627978515625,-0.007456631399691105,0.010252867825329304,0.015712186694145203
1772515168447326500,8.276326416015625,-0.0031956990715116262,0.011318100616335869,0.019973119720816612
1772515168457385500,8.286385498046876,0.0021304660476744175,0.010252867825329304,0.016777420416474342
1772515168467433200,8.29643310546875,0.0053261648863554,0.011318100616335869,0.008255556225776672
1772515168477490400,8.306490478515625,0.009587096981704235,0.01770949922502041,-0.00452724052593112
1772515168487539000,8.3165390625,0.016910573467612267,0.01770949922502041,-0.015179570764303207
1772515168497573000,8.326572998046874,0.028628136962652206,0.015579032711684704,-0.018375270068645477
1772515168507620400,8.336620361328125,0.040345702320337296,0.015579032711684704,-0.014114337973296642
1772515168517660400,8.346660400390626,0.04993279650807381,0.008122402243316174,-0.0023967742454260588
1772515168527707000,8.356706787109376,0.055258963257074356,0.0038614696823060513,0.022103585302829742
1772515168537752600,8.366752685546874,0.057389430701732635,0.011318100616335869,0.04660394415259361
1772515168547799000,8.376799072265625,0.055258963257074356,0.01983996480703354,0.0583215095102787
1772515168557848800,8.386848876953126,0.04673709720373154,0.01664426550269127,0.05619104206562042
1772515168567895600,8.3968955078125,0.03608476743102074,0.01664426550269127,0.05086487531661987
1772515168577949700,8.40694970703125,0.029693370684981346,0.02303566411137581,0.04234301298856735
1772515168587997400,8.41699755859375,0.022236740216612816,0.02410089783370495,0.021038351580500603
1772515168598036500,8.427036376953126,0.013714875094592571,0.008122402243316174,-0.013049104250967503
1772515168608083200,8.437083251953124,0.013714875094592571,-0.008921326138079166,-0.03222329914569855
1772515168618131000,8.447130859375,0.007456631399691105,0.000665770610794425,-0.009853405877947807
1772515168628177700,8.457177734375,-0.0063913981430232525,0.02197043038904667,0.026364516466856003
1772515168638239500,8.467239501953125,-0.01917419396340847,0.02090519852936268,0.0370168462395668
1772515168648287700,8.477287841796874,-0.0213046595454216,0.000665770610794425,0.028494983911514282
1772515168658312200,8.487312255859376,-0.01810896210372448,-0.006790860556066036,0.025299284607172012
1772515168668358100,8.497358154296874,-0.01810896210372448,-0.0003994623839389533,0.027429750189185143
1772515168678431000,8.507430908203125,-0.02556559257209301,0.008122402243316174,0.029560215771198273
1772515168688479500,8.5174794921875,-0.03408745676279068,0.004926702938973904,0.021038351580500603
1772515168698528000,8.527528076171874,-0.03834838792681694,-0.006790860556066036,0.008255556225776672
1772515168708576500,8.537576416015625,-0.03941362351179123,-0.008921326138079166,0.00399462366476655
1772515168718616800,8.547616943359374,-0.03621792420744896,0.004926702938973904,0.0050598569214344025
1772515168728664600,8.55766455078125,-0.03408745676279068,0.01664426550269127,0.012516488321125507
1772515168738710800,8.567710693359375,-0.03089175745844841,0.02623136341571808,0.023168819025158882
1772515168748758500,8.577758544921876,-0.02450035884976387,0.02623136341571808,0.030625449493527412
1772515168758806800,8.587806884765625,-0.01704372838139534,0.01664426550269127,0.03169068321585655
1772515168768854500,8.5978544921875,-0.009587096981704235,0.010252867825329304,0.03382114693522453
1772515168778900000,8.60789990234375,-0.0063913981430232525,0.005991935729980469,0.04234301298856735
1772515168788947500,8.617947509765624,-0.0053261648863554,-0.0025299284607172012,0.05193011090159416
1772515168798994200,8.627994140625,-0.0031956990715116262,-0.00359516148455441,0.06151720881462097
1772515168809041400,8.63804150390625,-0.007456631399691105,0.000665770610794425,0.07110430300235748
1772515168819071500,8.648071533203124,-0.01171756349503994,-0.0025299284607172012,0.07430000603199005
1772515168829117200,8.6581171875,-0.01917419396340847,-0.014247491955757141,0.06471290439367294
1772515168839183400,8.668183349609375,-0.03089175745844841,-0.02489982172846794,0.0476691760122776
1772515168849231000,8.678231201171876,-0.03621792420744896,-0.03235645219683647,0.03595161437988281
1772515168859261000,8.688260986328125,-0.03941362351179123,-0.03661738336086273,0.03275591507554054
1772515168869307000,8.698306884765625,-0.04793548583984375,-0.03342168778181076,0.03488638252019882
1772515168879369200,8.708369140625,-0.06071828305721283,-0.02063889056444168,0.03808208182454109
1772515168889416700,8.718416748046875,-0.07243584841489792,-0.0185084231197834,0.04234301298856735
1772515168899449600,8.72844970703125,-0.07350108027458191,-0.01744319126009941,0.03808208182454109
1772515168909495600,8.73849560546875,-0.06817491352558136,-0.014247491955757141,0.027429750189185143
1772515168919555600,8.7485556640625,-0.06710968166589737,-0.011051792651414871,0.012516488321125507
1772515168929603000,8.75860302734375,-0.06497921794652939,-0.005725627299398184,-0.005592473316937685
1772515168939660800,8.768660888671874,-0.06178351491689682,-0.0014646954368799925,-0.019440501928329468
1772515168949709300,8.778709228515625,-0.05219641700387001,0.000665770610794425,-0.025831900537014008
1772515168959734300,8.788734375,-0.04154408723115921,0.009187635034322739,-0.017310036346316338
1772515168969780500,8.798780517578125,-0.03515268862247467,0.014513799920678139,-0.005592473316937685
1772515168979826400,8.808826416015625,-0.02876129187643528,0.015579032711684704,-0.0002663082559593022
1772515168989872600,8.81887255859375,-0.01704372838139534,0.01664426550269127,-0.0002663082559593022
1772515168999937000,8.82893701171875,-0.0063913981430232525,0.01664426550269127,-0.0002663082559593022
1772515169009984800,8.83898486328125,0.0031956990715116262,0.012383334338665009,-0.005592473316937685
1772515169019989000,8.848989013671876,0.013714875094592571,0.0027962366584688425,-0.008788172155618668
1772515169030032600,8.85903271484375,0.017975807189941406,0.0027962366584688425,-0.0077229393646121025
1772515169040122600,8.86912255859375,0.016910573467612267,0.007057168986648321,-0.006657706573605537
1772515169050171000,8.8791708984375,0.013714875094592571,0.004926702938973904,-0.0077229393646121025
1772515169060206600,8.88920654296875,0.0031956990715116262,-0.00359516148455441,-0.010918638668954372
1772515169070253600,8.899253662109375,-0.0031956990715116262,-0.011051792651414871,-0.009853405877947807
1772515169080311600,8.9093115234375,-0.0031956990715116262,-0.012117025442421436,-0.0077229393646121025
1772515169090359800,8.91935986328125,-0.0010652330238372087,-0.013182258233428001,-0.00133154122158885
1772515169100394000,8.92939404296875,-0.0021304660476744175,-0.01637795753777027,-0.0002663082559593022
1772515169110440700,8.939440673828125,-0.0021304660476744175,-0.0238345880061388,-0.0034620072692632675
1772515169120487200,8.949487060546875,-0.0010652330238372087,-0.03022598661482334,-0.0077229393646121025
1772515169130534000,8.959533935546874,0.0021304660476744175,-0.03235645219683647,-0.013049104250967503
1772515169140599800,8.969599853515625,0.0031956990715116262,-0.03874785080552101,-0.013049104250967503
1772515169150648600,8.979648681640626,0.00852186419069767,-0.039813082665205,-0.00133154122158885
1772515169160678100,8.98967822265625,0.013714875094592571,-0.03342168778181076,0.021038351580500603
1772515169170724900,8.999724853515625,0.012649642303586006,-0.02596505545079708,0.03808208182454109
1772515169180770800,9.009770751953125,0.0106523297727108,-0.02703028731048107,0.03382114693522453
1772515169190817500,9.019817626953126,0.009587096981704235,-0.02809552103281021,0.03488638252019882
1772515169200878800,9.02987890625,0.0063913981430232525,-0.01637795753777027,0.04447348043322563
1772515169210926800,9.0399267578125,0,-0.0025299284607172012,0.04340824484825134
1772515169220961800,9.0499619140625,-0.00852186419069767,-0.0003994623839389533,0.026364516466856003
1772515169231008800,9.0600087890625,-0.0106523297727108,-0.0014646954368799925,0.0018641578499227762
1772515169241064200,9.070064208984375,-0.009587096981704235,0.0038614696823060513,-0.00452724052593112
1772515169251112000,9.08011181640625,-0.01491326279938221,0.015579032711684704,-0.00452724052593112
1772515169261108500,9.0901083984375,-0.02876129187643528,0.02090519852936268,-0.010918638668954372
1772515169271171800,9.100171875,-0.04047885537147522,0.013448567129671574,-0.017310036346316338
1772515169281220400,9.110220458984376,-0.0426093190908432,0.02090519852936268,-0.009853405877947807
1772515169301311500,9.1303115234375,-0.05539211630821228,0.037815771996974945,0.00719032296910882
1772515169311372800,9.140372802734374,-0.05645735189318657,0.02303566411137581,0.0007989247678779066
1772515169331468000,9.160468017578125,-0.03089175745844841,0.034620072692632675,0.04234301298856735
1772515169341535000,9.170534912109375,-0.01917419396340847,0.039946239441633224,0.0583215095102787
1772515169351584300,9.180584228515626,-0.0159784946590662,0.031424373388290405,0.05193011090159416
1772515169361609200,9.190609130859375,-0.01491326279938221,0.02303566411137581,0.030625449493527412
1772515169371608600,9.200608642578125,-0.01704372838139534,0.015579032711684704,0.009320789016783237
1772515169391707000,9.220706787109375,-0.02876129187643528,0.015579032711684704,-0.009853405877947807
1772515169401766400,9.230766357421874,-0.03621792420744896,0.01877473294734955,-0.008788172155618668
1772515169411815700,9.240815673828125,-0.0426093190908432,0.01877473294734955,-0.010918638668954372
1772515169421896700,9.250896728515626,-0.04154408723115921,0.011318100616335869,-0.017310036346316338
1772515169431948800,9.26094873046875,-0.03515268862247467,-0.0025299284607172012,-0.018375270068645477
1772515169441994500,9.270994384765626,-0.02982652559876442,-0.0025299284607172012,-0.0002663082559593022
1772515169452045800,9.2810458984375,-0.02450035884976387,0.007057168986648321,0.019973119720816612
1772515169462090800,9.2910908203125,-0.01810896210372448,0.0038614696823060513,0.026364516466856003
1772515169472141600,9.3011416015625,-0.00852186419069767,-0.008921326138079166,0.018907885998487473
1772515169482179600,9.3111796875,0.0010652330238372087,-0.01744319126009941,0.012516488321125507
1772515169492229000,9.32122900390625,0.0063913981430232525,-0.02596505545079708,0.009320789016783237
1772515169502273500,9.3312734375,0.0106523297727108,-0.03448691964149475,0.0007989247678779066
1772515169512322600,9.341322509765625,0.015845341607928276,-0.03555215150117874,-0.005592473316937685
1772515169522359000,9.351359130859375,0.023301972076296806,-0.03235645219683647,-0.006657706573605537
1772515169532406500,9.361406494140626,0.029693370684981346,-0.03022598661482334,-0.013049104250967503
1772515169542451500,9.371451416015624,0.03608476743102074,-0.03235645219683647,-0.017310036346316338
1772515169552498700,9.381498779296875,0.03928046673536301,-0.03235645219683647,-0.011983871459960938
1772515169562548000,9.3915478515625,0.044606633484363556,-0.02809552103281021,0.0007989247678779066
1772515169572595500,9.401595458984374,0.055258963257074356,-0.0238345880061388,0.015712186694145203
1772515169582639000,9.41163916015625,0.0712374597787857,-0.02489982172846794,0.026364516466856003
1772515169592686300,9.421686279296875,0.08402025699615479,-0.02596505545079708,0.03488638252019882
1772515169602766600,9.4317666015625,0.09147688746452332,-0.02809552103281021,0.03808208182454109
1772515169612817400,9.4418173828125,0.09467258304357529,-0.03129122033715248,0.03595161437988281
1772515169622865700,9.45186572265625,0.09573781490325928,-0.03448691964149475,0.027429750189185143
1772515169632916000,9.461916015625,0.0936073511838913,-0.039813082665205,0.014646953903138638
1772515169642960100,9.471960205078124,0.08828118443489075,-0.03874785080552101,-0.00452724052593112
1772515169653009700,9.482009765625,0.0829550251364708,-0.03235645219683647,-0.013049104250967503
1772515169663050200,9.49205029296875,0.0712374597787857,-0.02596505545079708,-0.010918638668954372
1772515169673099000,9.50209912109375,0.06271559745073318,-0.02809552103281021,-0.00452724052593112
1772515169683147000,9.51214697265625,0.059519894421100616,-0.03129122033715248,0.00719032296910882
1772515169693195800,9.52219580078125,0.059519894421100616,-0.03342168778181076,0.016777420416474342
1772515169703236900,9.53223681640625,0.055258963257074356,-0.04087831825017929,0.024234050884842873
1772515169713284900,9.542284912109375,0.050998032093048096,-0.03555215150117874,0.03488638252019882
1772515169723333400,9.55233349609375,0.040345702320337296,-0.0238345880061388,0.04234301298856735
1772515169733381400,9.56238134765625,0.030758604407310486,-0.01637795753777027,0.03914731368422508
1772515169743428400,9.572428466796875,0.013714875094592571,-0.005725627299398184,0.030625449493527412
1772515169753476000,9.58247607421875,-0.0010652330238372087,-0.0003994623839389533,0.016777420416474342
1772515169763524000,9.592524169921875,-0.01810896210372448,0.005991935729980469,-0.0034620072692632675
1772515169773571800,9.60257177734375,-0.03302222490310669,0.004926702938973904,-0.030092833563685417
1772515169783616800,9.61261669921875,-0.04047885537147522,0.0017310036346316338,-0.0375494658946991
1772515169793664300,9.622664306640624,-0.03941362351179123,0.000665770610794425,-0.03222329914569855
1772515169803696600,9.632696533203125,-0.03302222490310669,0.000665770610794425,-0.019440501928329468
1772515169813742600,9.64274267578125,-0.02556559257209301,0.004926702938973904,-0.0023967742454260588
1772515169823804400,9.652804443359376,-0.02236989326775074,0.01877473294734955,0.016777420416474342
1772515169833852200,9.66285205078125,-0.02236989326775074,0.02303566411137581,0.021038351580500603
1772515169843885000,9.672885009765626,-0.01917419396340847,0.004926702938973904,0.0061250897124409676
1772515169853931300,9.68293115234375,-0.009587096981704235,-0.008921326138079166,0.0018641578499227762
1772515169863980000,9.69297998046875,-0.0021304660476744175,-0.00359516148455441,0.014646953903138638
1772515169874026500,9.703026611328125,-0.0053261648863554,0.0038614696823060513,0.022103585302829742
1772515169884083200,9.713083251953124,-0.007456631399691105,0.004926702938973904,0.015712186694145203
1772515169894131000,9.723130859375,-0.0010652330238372087,0.0038614696823060513,0.0050598569214344025
1772515169904177700,9.733177734375,0,0.010252867825329304,0.0050598569214344025
1772515169914225200,9.74322509765625,-0.0053261648863554,0.01983996480703354,0.008255556225776672
1772515169924259800,9.753259765625,-0.007456631399691105,0.030359141528606415,0.008255556225776672
1772515169934306000,9.76330615234375,-0.0053261648863554,0.041011471301317215,0.002929390873759985
1772515169944363800,9.77336376953125,-0.00852186419069767,0.048468101769685745,-0.00452724052593112
1772515169954411300,9.783411376953126,-0.0106523297727108,0.047402869910001755,-0.020505735650658607
1772515169964449800,9.79344970703125,-0.009587096981704235,0.044207170605659485,-0.03541899845004082
1772515169974496300,9.803496337890625,-0.0106523297727108,0.043141938745975494,-0.04181039705872536
1772515169984545300,9.813545166015626,-0.01171756349503994,0.042076703161001205,-0.04607132822275162
1772515169994592000,9.823592041015624,-0.012782796286046505,0.041011471301317215,-0.04287562891840935
1772515170004639200,9.83363916015625,-0.01704372838139534,0.042076703161001205,-0.029027599841356277
1772515170014686000,9.84368603515625,-0.02450035884976387,0.043141938745975494,-0.015179570764303207
1772515170024731400,9.8537314453125,-0.03089175745844841,0.037815771996974945,-0.008788172155618668
1772515170034777900,9.86377783203125,-0.02876129187643528,0.030359141528606415,-0.006657706573605537
1772515170044841000,9.873841064453124,-0.0213046595454216,0.01877473294734955,-0.00452724052593112
1772515170054889200,9.88388916015625,-0.009587096981704235,0.01770949922502041,-0.0023967742454260588
1772515170064921600,9.893921630859374,-0.0063913981430232525,0.01664426550269127,-0.00133154122158885
1772515170074968300,9.90396826171875,-0.0063913981430232525,0.012383334338665009,-0.0077229393646121025
1772515170085015600,9.914015625,-0.007456631399691105,0.007057168986648321,-0.014114337973296642
1772515170095062300,9.924062255859376,-0.009587096981704235,0.005991935729980469,-0.013049104250967503
1772515170105112000,9.934112060546875,-0.0063913981430232525,0.008122402243316174,-0.010918638668954372
1772515170115159000,9.944158935546875,0.0031956990715116262,0.010252867825329304,-0.008788172155618668
1772515170125209000,9.954208984375,0.015845341607928276,0.015579032711684704,-0.00133154122158885
1772515170135256300,9.96425634765625,0.024367205798625946,0.02303566411137581,0.002929390873759985
1772515170145309200,9.97430908203125,0.03608476743102074,0.02197043038904667,0.0007989247678779066
1772515170155357200,9.984357177734376,0.050998032093048096,0.014513799920678139,-0.0023967742454260588
1772515170165407000,9.994406982421875,0.06591129302978516,0.013448567129671574,-0.00452724052593112
1772515170175455000,10.004455078125,0.06910699605941772,0.011318100616335869,0.002929390873759985
1772515170185488000,10.01448779296875,0.06697652488946915,0.010252867825329304,0.010386021807789803
1772515170195534300,10.024534423828126,0.06910699605941772,0.004926702938973904,0.012516488321125507
1772515170205581000,10.0345810546875,0.06484606117010117,0.000665770610794425,0.011451254598796368
1772515170215627500,10.04462744140625,0.055258963257074356,0.0017310036346316338,0.0061250897124409676
1772515170225674000,10.054674072265625,0.047802332788705826,0.005991935729980469,-0.00452724052593112
1772515170235720700,10.064720703125,0.041410934180021286,0.008122402243316174,-0.011983871459960938
1772515170245772300,10.074772216796875,0.035019535571336746,0.012383334338665009,-0.011983871459960938
1772515170255819300,10.0848193359375,0.033954303711652756,0.013448567129671574,-0.0077229393646121025
1772515170265879600,10.094879638671875,0.037150003015995026,0.007057168986648321,-0.00452724052593112
1772515170275928000,10.104927978515626,0.042476166039705276,-0.0014646954368799925,-0.00133154122158885
1772515170286009900,10.115009765625,0.045671865344047546,-0.008921326138079166,-0.00133154122158885
1772515170296061400,10.1250615234375,0.044606633484363556,-0.013182258233428001,-0.0023967742454260588
1772515170306050600,10.135050537109375,0.037150003015995026,-0.0185084231197834,-0.00452724052593112
1772515170316096000,10.145095947265625,0.024367205798625946,-0.02170412242412567,-0.0077229393646121025
1772515170326146300,10.155146240234375,0.01171756349503994,-0.02170412242412567,-0.010918638668954372
1772515170336192300,10.165192138671875,0.0031956990715116262,-0.02489982172846794,-0.017310036346316338
1772515170346240500,10.175240478515626,0.0031956990715116262,-0.03129122033715248,-0.024766668677330017
1772515170356286700,10.18528662109375,0.00852186419069767,-0.02596505545079708,-0.026897134259343147
1772515170366337500,10.195337646484376,0.01171756349503994,-0.015312724746763706,-0.022636201232671738
1772515170376384300,10.20538427734375,0.014780107885599136,-0.015312724746763706,-0.018375270068645477
1772515170386438100,10.215438232421874,0.021171506494283676,-0.011051792651414871,-0.011983871459960938
1772515170396485600,10.225485595703125,0.024367205798625946,-0.0014646954368799925,-0.006657706573605537
1772515170406524400,10.2355244140625,0.019041040912270546,0.0027962366584688425,-0.0023967742454260588
1772515170416571000,10.24557080078125,0.013714875094592571,0.007057168986648321,-0.00133154122158885
1772515170426620700,10.25562060546875,0.0031956990715116262,0.010252867825329304,-0.00133154122158885
1772515170436667400,10.26566748046875,-0.004260932095348835,0.012383334338665009,-0.00133154122158885
1772515170446713900,10.2757138671875,-0.009587096981704235,0.02410089783370495,-0.0034620072692632675
1772515170456760600,10.285760498046875,-0.0159784946590662,0.032489608973264694,-0.0077229393646121025
1772515170466808800,10.295808837890625,-0.01810896210372448,0.032489608973264694,-0.019440501928329468
1772515170476855800,10.305855712890626,-0.01704372838139534,0.02623136341571808,-0.029027599841356277
1772515170486898700,10.315898681640626,-0.01384802907705307,0.02303566411137581,-0.03328853100538254
1772515170496945200,10.325945068359376,-0.01704372838139534,0.014513799920678139,-0.027962366119027138
1772515170506995500,10.335995361328125,-0.02343512699007988,0.014513799920678139,-0.018375270068645477
1772515170517042200,10.346042236328126,-0.02769605815410614,0.01983996480703354,-0.008788172155618668
1772515170527090700,10.356090576171875,-0.03515268862247467,0.01983996480703354,-0.00452724052593112
1772515170537137700,10.3661376953125,-0.03728315606713295,0.01983996480703354,-0.00452724052593112
1772515170547201000,10.376200927734375,-0.03302222490310669,0.013448567129671574,-0.006657706573605537
1772515170557249800,10.386249755859374,-0.02450035884976387,0.005991935729980469,-0.005592473316937685
1772515170567294000,10.3962939453125,-0.0159784946590662,0.004926702938973904,-0.0002663082559593022
1772515170577342200,10.40634228515625,-0.0106523297727108,0.000665770610794425,0.0050598569214344025
1772515170587387600,10.4163876953125,-0.0021304660476744175,-0.008921326138079166,0.0061250897124409676
1772515170597435400,10.426435302734374,0.004260932095348835,-0.014247491955757141,0.011451254598796368
1772515170607465500,10.436465576171875,0.007456631399691105,-0.012117025442421436,0.019973119720816612
1772515170617511700,10.44651171875,0.007456631399691105,-0.009986559860408306,0.023168819025158882
1772515170627563500,10.4565634765625,0.004260932095348835,-0.012117025442421436,0.019973119720816612
1772515170637610000,10.46660986328125,0,-0.011051792651414871,0.014646953903138638
1772515170647657000,10.476656982421876,-0.0031956990715116262,-0.008921326138079166,0.0018641578499227762
1772515170657703400,10.486703369140624,-0.007456631399691105,-0.006790860556066036,-0.014114337973296642
1772515170667753000,10.4967529296875,-0.009587096981704235,-0.006790860556066036,-0.030092833563685417
1772515170677800000,10.506800048828126,-0.0159784946590662,-0.0003994623839389533,-0.04074516147375107
1772515170687833600,10.51683349609375,-0.01917419396340847,0.004926702938973904,-0.04713656008243561
1772515170697879300,10.52687939453125,-0.0159784946590662,0.0017310036346316338,-0.05033225938677788
1772515170707940900,10.53694091796875,-0.00852186419069767,-0.004660394508391619,-0.04500609636306763
1772515170717988000,10.546988037109376,0.0010652330238372087,-0.014247491955757141,-0.03648423030972481
1772515170728033800,10.55703369140625,0.0106523297727108,-0.02489982172846794,-0.018375270068645477
1772515170738080800,10.567080810546875,0.016910573467612267,-0.02916075475513935,0.00719032296910882
1772515170748138800,10.577138671875,0.017975807189941406,-0.03555215150117874,0.030625449493527412
1772515170758187000,10.58718701171875,0.022236740216612816,-0.03342168778181076,0.05193011090159416
1772515170768225300,10.597225341796875,0.025432437658309937,-0.03129122033715248,0.06045197322964668
1772515170778272500,10.6072724609375,0.024367205798625946,-0.02916075475513935,0.05725627392530441
1772515170788307200,10.61730712890625,0.023301972076296806,-0.02703028731048107,0.04127778112888336
1772515170798353200,10.627353271484376,0.015845341607928276,-0.02276935614645481,0.021038351580500603
1772515170808428000,10.637427978515625,0.0063913981430232525,-0.01637795753777027,-0.0002663082559593022
1772515170818476800,10.647476806640626,-0.004260932095348835,-0.012117025442421436,-0.020505735650658607
1772515170828523000,10.65752294921875,-0.012782796286046505,-0.005725627299398184,-0.031158065423369408
1772515170838571800,10.66757177734375,-0.01917419396340847,0.0038614696823060513,-0.031158065423369408
1772515170848613600,10.677613525390624,-0.02663082629442215,0.010252867825329304,-0.025831900537014008
1772515170858661600,10.68766162109375,-0.03089175745844841,0.007057168986648321,-0.019440501928329468
1772515170868704500,10.69770458984375,-0.02982652559876442,0.004926702938973904,-0.009853405877947807
1772515170878752000,10.707751953125,-0.0319569893181324,0.010252867825329304,-0.0023967742454260588
1772515170888806100,10.71780615234375,-0.03302222490310669,0.005991935729980469,-0.00452724052593112
1772515170898854100,10.727854248046874,-0.02663082629442215,-0.004660394508391619,-0.010918638668954372
1772515170908896500,10.737896484375,-0.02343512699007988,-0.011051792651414871,-0.013049104250967503
1772515170918944000,10.747944091796874,-0.02450035884976387,-0.015312724746763706,-0.0077229393646121025
1772515170928992300,10.7579921875,-0.02876129187643528,-0.012117025442421436,0.0018641578499227762
1772515170939039700,10.768039794921876,-0.03302222490310669,-0.005725627299398184,0.012516488321125507
1772515170949083400,10.77808349609375,-0.03728315606713295,0.000665770610794425,0.017842652276158333
1772515170959130600,10.788130615234374,-0.04047885537147522,0.0017310036346316338,0.009320789016783237
1772515170969183000,10.798182861328126,-0.03834838792681694,-0.0014646954368799925,0.0007989247678779066
1772515170979230700,10.808230712890625,-0.03728315606713295,0.0017310036346316338,-0.0034620072692632675
1772515170989276400,10.8182763671875,-0.03728315606713295,0.010252867825329304,-0.0077229393646121025
1772515170999324000,10.828323974609376,-0.03941362351179123,0.02197043038904667,-0.014114337973296642
1772515171009357000,10.838357177734375,-0.04473978653550148,0.031424373388290405,-0.025831900537014008
1772515171019403300,10.8484033203125,-0.04687025398015976,0.02942706272006035,-0.0375494658946991
1772515171029449700,10.85844970703125,-0.04473978653550148,0.02836182899773121,-0.04181039705872536
1772515171039496000,10.868495849609374,-0.0426093190908432,0.02623136341571808,-0.03541899845004082
1772515171049545500,10.87854541015625,-0.0426093190908432,0.02197043038904667,-0.021570969372987747
1772515171059592000,10.888592041015626,-0.04687025398015976,0.01664426550269127,-0.010918638668954372
1772515171069639700,10.8986396484375,-0.05006595328450203,0.007057168986648321,-0.0077229393646121025
1772515171079686400,10.908686279296875,-0.0426093190908432,-0.0025299284607172012,-0.006657706573605537
1772515171089732000,10.918732177734375,-0.0319569893181324,-0.011051792651414871,-0.0077229393646121025
1772515171099778600,10.928778564453125,-0.02663082629442215,-0.0185084231197834,-0.006657706573605537
1772515171109825000,10.938824951171876,-0.0213046595454216,-0.02916075475513935,0.0007989247678779066
1772515171119871700,10.948871826171874,-0.01917419396340847,-0.0238345880061388,0.018907885998487473
1772515171129920500,10.95892041015625,-0.0159784946590662,-0.0185084231197834,0.03275591507554054
1772515171139967200,10.96896728515625,-0.007456631399691105,-0.015312724746763706,0.03488638252019882
1772515171150024000,10.97902392578125,0.0053261648863554,-0.012117025442421436,0.027429750189185143
1772515171160071700,10.98907177734375,0.014780107885599136,-0.0014646954368799925,0.013581721112132072
1772515171170125300,10.999125244140625,0.020106272771954536,0.008122402243316174,-0.0077229393646121025
1772515171180173600,11.009173583984374,0.023301972076296806,0.015579032711684704,-0.029027599841356277
1772515171190218500,11.019218505859374,0.025432437658309937,0.02516612969338894,-0.0375494658946991
1772515171200266500,11.0292666015625,0.024367205798625946,0.037815771996974945,-0.03328853100538254
1772515171210308000,11.03930810546875,0.022236740216612816,0.046337638050317764,-0.020505735650658607
1772515171220355600,11.04935546875,0.021171506494283676,0.045272402465343475,-0.005592473316937685
1772515171230391800,11.059391845703125,0.024367205798625946,0.036750540137290955,0.011451254598796368
1772515171240438000,11.06943798828125,0.023301972076296806,0.02729659713804722,0.023168819025158882
1772515171250493400,11.079493408203126,0.017975807189941406,0.01983996480703354,0.03382114693522453
1772515171260540700,11.089540771484375,0.01171756349503994,0.009187635034322739,0.0370168462395668
1772515171270581800,11.099581787109376,0.00852186419069767,-0.00359516148455441,0.03275591507554054
1772515171280628200,11.109628173828124,0.00852186419069767,-0.006790860556066036,0.023168819025158882
1772515171290675200,11.11967529296875,0.0053261648863554,-0.013182258233428001,0.012516488321125507
1772515171300721700,11.1297216796875,-0.0021304660476744175,-0.0185084231197834,0.0061250897124409676
1772515171310771700,11.139771728515624,-0.009587096981704235,-0.01637795753777027,0.0007989247678779066
1772515171320818700,11.149818603515625,-0.01704372838139534,-0.014247491955757141,-0.006657706573605537
1772515171330865400,11.159865478515625,-0.01810896210372448,-0.009986559860408306,-0.011983871459960938
1772515171340912400,11.169912353515626,-0.01810896210372448,0.0017310036346316338,-0.009853405877947807
1772515171350968800,11.17996875,-0.01384802907705307,-0.0003994623839389533,-0.009853405877947807
1772515171361016600,11.1900166015625,-0.0053261648863554,-0.008921326138079166,-0.005592473316937685
1772515171371053800,11.2000537109375,0.0106523297727108,0.000665770610794425,0.011451254598796368
1772515171381100800,11.210100830078124,0.019041040912270546,0.010252867825329304,0.027429750189185143
1772515171391159000,11.220158935546875,0.022236740216612816,0.005991935729980469,0.025299284607172012
1772515171401207000,11.23020703125,0.024367205798625946,0.0027962366584688425,0.014646953903138638
1772515171411240000,11.240239990234375,0.025432437658309937,0.004926702938973904,-0.00133154122158885
1772515171421286400,11.250286376953126,0.023301972076296806,0.0038614696823060513,-0.020505735650658607
1772515171431333600,11.260333740234374,0.024367205798625946,0.000665770610794425,-0.03435376659035683
1772515171441380400,11.27038037109375,0.024367205798625946,0.004926702938973904,-0.03861469775438309
1772515171451441700,11.280441650390625,0.019041040912270546,0.005991935729980469,-0.03435376659035683
1772515171461489700,11.29048974609375,0.016910573467612267,-0.0025299284607172012,-0.025831900537014008
1772515171471541200,11.300541259765625,0.017975807189941406,-0.004660394508391619,-0.009853405877947807
1772515171481589800,11.31058984375,0.015845341607928276,-0.0025299284607172012,0.0061250897124409676
1772515171491620000,11.3206201171875,0.0106523297727108,-0.007856093347072601,0.008255556225776672
1772515171501666800,11.330666748046875,0.01171756349503994,-0.012117025442421436,0.00399462366476655
1772515171511714000,11.340714111328126,0.015845341607928276,-0.013182258233428001,0.00719032296910882
1772515171521760500,11.350760498046874,0.013714875094592571,-0.009986559860408306,0.012516488321125507
1772515171531807200,11.36080712890625,0.0063913981430232525,-0.008921326138079166,0.014646953903138638
1772515171541854000,11.37085400390625,-0.0031956990715116262,-0.004660394508391619,0.017842652276158333
1772515171551922700,11.380922607421875,-0.00852186419069767,0.000665770610794425,0.018907885998487473
1772515171561971700,11.3909716796875,-0.01171756349503994,0.008122402243316174,0.012516488321125507
1772515171571996200,11.40099609375,-0.0159784946590662,0.013448567129671574,0.0007989247678779066
1772515171582042400,11.41104248046875,-0.02343512699007988,0.013448567129671574,-0.016244804486632347
1772515171592089600,11.421089599609376,-0.03408745676279068,0.01664426550269127,-0.026897134259343147
1772515171602136000,11.431135986328124,-0.04580501839518547,0.01770949922502041,-0.030092833563685417
1772515171612197000,11.441197021484374,-0.05113118514418602,0.02090519852936268,-0.021570969372987747
1772515171622245000,11.4512451171875,-0.04473978653550148,0.02729659713804722,-0.0077229393646121025
1772515171632281300,11.46128125,-0.03728315606713295,0.01983996480703354,0.0007989247678779066
1772515171642328000,11.471328125,-0.02769605815410614,0.008122402243316174,0.00399462366476655
1772515171652385500,11.481385498046874,-0.01704372838139534,0.0017310036346316338,0.009320789016783237
1772515171662433300,11.491433349609375,-0.012782796286046505,0.0027962366584688425,0.015712186694145203
1772515171672470800,11.501470703125,-0.01491326279938221,0.0017310036346316338,0.011451254598796368
1772515171682517500,11.511517578125,-0.01491326279938221,-0.008921326138079166,-0.0002663082559593022
1772515171692575200,11.5215751953125,-0.0106523297727108,-0.012117025442421436,-0.0023967742454260588
1772515171702623200,11.531623291015626,-0.0053261648863554,-0.005725627299398184,0.002929390873759985
1772515171712657400,11.541657470703125,-0.0031956990715116262,-0.0003994623839389533,0.0050598569214344025
1772515171722704100,11.5517041015625,-0.0010652330238372087,-0.004660394508391619,0.0061250897124409676
1772515171732749800,11.561749755859376,0.0021304660476744175,0.000665770610794425,0.013581721112132072
1772515171742796300,11.57179638671875,0.0031956990715116262,0.014513799920678139,0.029560215771198273
1772515171752841200,11.58184130859375,0.0031956990715116262,0.01770949922502041,0.030625449493527412
1772515171762887400,11.591887451171875,0.0053261648863554,0.009187635034322739,0.019973119720816612
1772515171772950500,11.601950439453125,0.004260932095348835,0.01877473294734955,0.011451254598796368
1772515171782998500,11.61199853515625,0.0063913981430232525,0.02090519852936268,0.002929390873759985
1772515171793042700,11.622042724609376,0.0031956990715116262,0.02410089783370495,-0.005592473316937685
1772515171803090200,11.632090087890624,-0.0053261648863554,0.033554840832948685,-0.009853405877947807
1772515171813144000,11.64214404296875,-0.012782796286046505,0.049533337354660034,-0.011983871459960938
1772515171823192300,11.6521923828125,-0.0159784946590662,0.0633813664317131,-0.017310036346316338
1772515171833224700,11.662224609375,-0.0159784946590662,0.061250898987054825,-0.03328853100538254
1772515171843271400,11.672271484375,-0.009587096981704235,0.049533337354660034,-0.04074516147375107
1772515171853328100,11.682328125,0.0010652330238372087,0.044207170605659485,-0.026897134259343147
1772515171863375600,11.692375732421874,0.0053261648863554,0.044207170605659485,-0.0023967742454260588
1772515171873403600,11.702403564453125,0.0053261648863554,0.039946239441633224,0.015712186694145203
1772515171883431400,11.712431396484375,0.012649642303586006,0.02516612969338894,0.014646953903138638
1772515171893475600,11.7224755859375,0.021171506494283676,0.007057168986648321,0.008255556225776672
1772515171903514400,11.732514404296875,0.021171506494283676,-0.0014646954368799925,0.008255556225776672
1772515171923624400,11.75262451171875,0.0053261648863554,0.012383334338665009,0.012516488321125507
1772515171943719700,11.7727197265625,0.004260932095348835,0.011318100616335869,-0.00133154122158885
1772515171953789000,11.782788818359375,0.0053261648863554,0.011318100616335869,-0.008788172155618668
1772515171963838500,11.79283837890625,0.0031956990715116262,0.013448567129671574,-0.009853405877947807
1772515171973879000,11.802879150390625,0.0021304660476744175,0.013448567129671574,-0.006657706573605537
1772515171983927600,11.812927490234374,0.0053261648863554,0.008122402243316174,-0.0034620072692632675
1772515171993947600,11.82294775390625,0.012649642303586006,0.005991935729980469,0.0061250897124409676
1772515172003996200,11.83299609375,0.019041040912270546,0.008122402243316174,0.012516488321125507
1772515172014066700,11.843066650390625,0.017975807189941406,0.004926702938973904,0.014646953903138638
1772515172024117200,11.8531171875,0.012649642303586006,0.000665770610794425,0.012516488321125507
1772515172034162000,11.863161865234375,0.0106523297727108,-0.0014646954368799925,0.009320789016783237
1772515172044211700,11.873211669921876,0.00852186419069767,0.0027962366584688425,0.008255556225776672
1772515172054258200,11.883258056640624,0.01171756349503994,0.008122402243316174,0.0061250897124409676
1772515172064307500,11.893307373046875,0.0106523297727108,0.010252867825329304,0.00399462366476655
1772515172074331000,11.903330810546874,0.004260932095348835,0.011318100616335869,0.002929390873759985
1772515172084377900,11.9133779296875,0.0010652330238372087,0.010252867825329304,-0.0034620072692632675
1772515172094452500,11.923452392578126,0,0.010252867825329304,-0.005592473316937685
1772515172104502000,11.933501953125,-0.0063913981430232525,0.009187635034322739,-0.006657706573605537
1772515172114539300,11.943539306640625,-0.009587096981704235,0.004926702938973904,-0.0077229393646121025
1772515172124587800,11.953587890625,-0.00852186419069767,-0.0014646954368799925,-0.00452724052593112
1772515172134633200,11.96363330078125,-0.012782796286046505,-0.007856093347072601,0.0007989247678779066
1772515172144681500,11.973681396484375,-0.01810896210372448,-0.009986559860408306,0.0050598569214344025
1772515172154740700,11.98374072265625,-0.03089175745844841,-0.0025299284607172012,0.016777420416474342
1772515172164790000,11.9937900390625,-0.05113118514418602,0.01770949922502041,0.023168819025158882
1772515172174847500,12.003847412109375,-0.06604444980621338,0.02516612969338894,0.014646953903138638
1772515172184897500,12.0138974609375,-0.07243584841489792,0.02623136341571808,0.002929390873759985
1772515172194931000,12.023930908203125,-0.06817491352558136,0.02516612969338894,-0.0077229393646121025
1772515172204979500,12.0339794921875,-0.06284874677658081,0.01770949922502041,-0.017310036346316338
1772515172215035100,12.04403515625,-0.05858781561255455,0.01877473294734955,-0.014114337973296642
1772515172225084200,12.054084228515626,-0.05645735189318657,0.02836182899773121,-0.00452724052593112
1772515172235123700,12.064123779296875,-0.06071828305721283,0.02729659713804722,0.0050598569214344025
1772515172245172000,12.074171875,-0.05432688444852829,0.015579032711684704,0.00719032296910882
1772515172255222800,12.084222900390625,-0.04367455467581749,0.004926702938973904,0.009320789016783237
1772515172265271300,12.094271240234375,-0.03515268862247467,0.0038614696823060513,0.015712186694145203
1772515172275312600,12.104312744140625,-0.02982652559876442,0.008122402243316174,0.018907885998487473
1772515172285360400,12.1143603515625,-0.02663082629442215,0.012383334338665009,0.018907885998487473
1772515172295412700,12.124412841796875,-0.02556559257209301,0.012383334338665009,0.018907885998487473
1772515172305461000,12.1344609375,-0.02663082629442215,0.014513799920678139,0.013581721112132072
1772515172315503600,12.144503662109376,-0.02236989326775074,0.014513799920678139,0.012516488321125507
1772515172325551400,12.15455126953125,-0.0106523297727108,0.013448567129671574,0.010386021807789803
1772515172335596300,12.16459619140625,0.004260932095348835,0.012383334338665009,0.011451254598796368
